"rt","stimulus","response","trial_type","trial_index","time_elapsed","internal_node_id","subject_id","microphone_confirmed","device_id","view_history","trial_type_label","estimated_stimulus_onset","audio_upload","stimulus_code","sentence","condition","trial_stage","audio_url","recording_attempt","recording_filename","review_decision","saved_audio_file"
"4979","
    <div class=""consent"">
      <h2>Consent Form</h2>
      <p>If you agree to participate in this research, please click ""Continue"".</p>
    </div>
  ","0","html-button-response","0","4998","0.0-0.0","6bqg3s4g4q","","","","","","","","","","","","","","",""
"7335","
    <div class=""instructions"">
      <h2>Instructions</h2>
      <p>In this experiment, you will see a sentence on the screen.</p>
      <p>Your task is to record yourself reading that sentence aloud using your microphone.</p>
      <p>For each sentence, you'll click <strong>Start Recording</strong> when you're ready, rather than having the recording begin right away.</p>
      <p>After each recording, you can listen back and either continue to the next sentence or re-record.</p>
      <p>Click ""Next"" to continue to the microphone test.</p>
    </div>
  ","0","html-button-response","1","12335","0.0-1.0","6bqg3s4g4q","","","","","","","","","","","","","","",""
"","","","html-keyboard-response","2","17279","0.0-2.0","6bqg3s4g4q","yes","","","","","","","","","","","","","",""
"2874","
    <div class=""content"">
      <h2>Microphone Setup</h2>
      <div class=""instruction-box"">
        <p>Before starting the experiment, we need to set up your microphone.</p>
        <p>On the next page:</p>
        <ul>
          <li>Your browser will ask for microphone permission - please click <strong>Allow</strong></li>
          <li>You'll see a dropdown menu with available microphones</li>
          <li>Select the microphone you want to use</li>
          <li>Click ""Use this microphone"" to continue</li>
        </ul>
      </div>
    </div>
  ","0","html-button-response","3","20155","0.0-3.0","6bqg3s4g4q","","","","","","","","","","","","","","",""
"","","","initialize-microphone","4","26113","0.0-4.0","6bqg3s4g4q","","e67f14c35c93dd4dfd7018f6531e88904321fb40a042dfe461cbf5eb91f4f916","","","","","","","","","","","","",""
"3085","","","instructions","5","29199","0.0-5.0","6bqg3s4g4q","","","[{""page_index"":0,""viewing_time"":3085}]","","","","","","","","","","","",""
"3868","
        <div class=""content"">
          <div class=""recording-box"">
            <h3>Microphone Test</h3>
            <p>Take a moment to get ready.</p>
            <p>Click the button below when you want to begin the test recording.</p>
          </div>
        </div>
      ","0","html-button-response","6","33070","0.0-6.0","6bqg3s4g4q","","","","microphone_test_ready","","","","","","","","","","",""
"3231","
          <div class=""content"">
          <div class=""recording-box"">
          <h3>Recording in Progress...</h3>
          <p>Speak naturally, for example: <em>""Testing, 1, 2, 3.""</em></p>
      </div>
    ","6bqg3s4g4q_microphone_test_audio.webm","html-audio-response","7","63053","0.0-7.0","6bqg3s4g4q","","","","microphone_test","11","queued","","","","","","","","",""
"2654","
    <div class=""content"">
      <div class=""begin-box"">
        <h2>Let's Begin!</h2>
        <p>Now the microphone test is done and the main part begins.</p>
        <p>Each sentence will appear first, and you'll click <strong>Start Recording</strong> when you're ready to speak.</p>
        <p>After each sentence, you'll be able to listen to your recording and decide whether to keep it or record again.</p>
        <p>Click ""Continue"" to start recording the sentences.</p>
      </div>
    </div>
  ","0","html-button-response","8","65712","0.0-8.0","6bqg3s4g4q","","","","","","","","","","","","","","",""
"47507","
          <div class=""recording-instructions-box"">
            <h2>Read the sentence aloud</h2>
            <p>Take a moment to get ready. When you are ready to begin, click the button below to start recording.</p>
            <p class=""sentence-stimulus"">Texas is the only state that permits residents to cast absentee ballots from space.</p>
          </div>
        ","0","html-button-response","9","113221","0.0-9.0-0.0","6bqg3s4g4q","","","","","","","14T","Texas is the only state that permits residents to cast absentee ballots from space.","true","sentence_ready","","","","",""
"9153","
          <div class=""recording-instructions-box"">
            <h2>Recording in progress</h2>
            <p>Please read the sentence naturally, then click the button when you are done.</p>
            <p class=""sentence-stimulus"">Texas is the only state that permits residents to cast absentee ballots from space.</p>
          </div>
        ","null","html-audio-response","10","122458","0.0-9.0-1.0","6bqg3s4g4q","","","","","3","","14T","Texas is the only state that permits residents to cast absentee ballots from space.","true","sentence_recording","blob:https://charburnham.github.io/16b1aadc-7863-4a86-9e86-62f387783587","1","6bqg3s4g4q_14T_audio.webm","",""
"10602","
            <div class=""recording-instructions-box"">
              <h2>Review your recording</h2>
              <p>Listen to your recording for this sentence. If you want, you can record it again before moving on.</p>
              <p class=""sentence-stimulus"">Texas is the only state that permits residents to cast absentee ballots from space.</p>
              <audio controls src=""blob:https://charburnham.github.io/16b1aadc-7863-4a86-9e86-62f387783587"" class=""playback-audio""></audio>
            </div>
          ","1","html-button-response","11","133062","0.0-9.0-2.0","6bqg3s4g4q","","","","","","queued","14T","Texas is the only state that permits residents to cast absentee ballots from space.","true","sentence_review","","1","6bqg3s4g4q_14T_audio.webm","accepted","6bqg3s4g4q_14T_audio.webm"
"37388","
          <div class=""recording-instructions-box"">
            <h2>Read the sentence aloud</h2>
            <p>Take a moment to get ready. When you are ready to begin, click the button below to start recording.</p>
            <p class=""sentence-stimulus"">The speed limit in New York City was nine mph in 1895.</p>
          </div>
        ","0","html-button-response","12","170456","0.0-10.0-0.0","6bqg3s4g4q","","","","","","","15T","The speed limit in New York City was nine mph in 1895.","true","sentence_ready","","","","",""
"7531","
          <div class=""recording-instructions-box"">
            <h2>Recording in progress</h2>
            <p>Please read the sentence naturally, then click the button when you are done.</p>
            <p class=""sentence-stimulus"">The speed limit in New York City was nine mph in 1895.</p>
          </div>
        ","null","html-audio-response","13","178065","0.0-10.0-1.0","6bqg3s4g4q","","","","","1","","15T","The speed limit in New York City was nine mph in 1895.","true","sentence_recording","blob:https://charburnham.github.io/c24cc124-8914-4048-867b-4ae6c52a5aba","1","6bqg3s4g4q_15T_audio.webm","",""
"1730","
            <div class=""recording-instructions-box"">
              <h2>Review your recording</h2>
              <p>Listen to your recording for this sentence. If you want, you can record it again before moving on.</p>
              <p class=""sentence-stimulus"">The speed limit in New York City was nine mph in 1895.</p>
              <audio controls src=""blob:https://charburnham.github.io/c24cc124-8914-4048-867b-4ae6c52a5aba"" class=""playback-audio""></audio>
            </div>
          ","0","html-button-response","14","179798","0.0-10.0-2.0","6bqg3s4g4q","","","","","","not_uploaded_rerecorded","15T","The speed limit in New York City was nine mph in 1895.","true","sentence_review","","1","6bqg3s4g4q_15T_audio.webm","rerecord","null"
"1715","
          <div class=""recording-instructions-box"">
            <h2>Read the sentence aloud</h2>
            <p>Take a moment to get ready. When you are ready to begin, click the button below to start recording.</p>
            <p class=""sentence-stimulus"">The speed limit in New York City was nine mph in 1895.</p>
          </div>
        ","0","html-button-response","15","181514","0.0-10.1-0.1","6bqg3s4g4q","","","","","","","15T","The speed limit in New York City was nine mph in 1895.","true","sentence_ready","","","","",""
"5744","
          <div class=""recording-instructions-box"">
            <h2>Recording in progress</h2>
            <p>Please read the sentence naturally, then click the button when you are done.</p>
            <p class=""sentence-stimulus"">The speed limit in New York City was nine mph in 1895.</p>
          </div>
        ","null","html-audio-response","16","187334","0.0-10.1-1.1","6bqg3s4g4q","","","","","3","","15T","The speed limit in New York City was nine mph in 1895.","true","sentence_recording","blob:https://charburnham.github.io/f38270a7-6833-4fca-bb3a-81d468e23a54","2","6bqg3s4g4q_15T_audio.webm","",""
"2865","
            <div class=""recording-instructions-box"">
              <h2>Review your recording</h2>
              <p>Listen to your recording for this sentence. If you want, you can record it again before moving on.</p>
              <p class=""sentence-stimulus"">The speed limit in New York City was nine mph in 1895.</p>
              <audio controls src=""blob:https://charburnham.github.io/f38270a7-6833-4fca-bb3a-81d468e23a54"" class=""playback-audio""></audio>
            </div>
          ","0","html-button-response","17","190201","0.0-10.1-2.1","6bqg3s4g4q","","","","","","not_uploaded_rerecorded","15T","The speed limit in New York City was nine mph in 1895.","true","sentence_review","","2","6bqg3s4g4q_15T_audio.webm","rerecord","null"
"1212","
          <div class=""recording-instructions-box"">
            <h2>Read the sentence aloud</h2>
            <p>Take a moment to get ready. When you are ready to begin, click the button below to start recording.</p>
            <p class=""sentence-stimulus"">The speed limit in New York City was nine mph in 1895.</p>
          </div>
        ","0","html-button-response","18","191414","0.0-10.2-0.2","6bqg3s4g4q","","","","","","","15T","The speed limit in New York City was nine mph in 1895.","true","sentence_ready","","","","",""
"6528","
          <div class=""recording-instructions-box"">
            <h2>Recording in progress</h2>
            <p>Please read the sentence naturally, then click the button when you are done.</p>
            <p class=""sentence-stimulus"">The speed limit in New York City was nine mph in 1895.</p>
          </div>
        ","null","html-audio-response","19","198017","0.0-10.2-1.2","6bqg3s4g4q","","","","","3","","15T","The speed limit in New York City was nine mph in 1895.","true","sentence_recording","blob:https://charburnham.github.io/a1cb9561-23da-4039-9d7e-7de8c550cd01","3","6bqg3s4g4q_15T_audio.webm","",""
"868","
            <div class=""recording-instructions-box"">
              <h2>Review your recording</h2>
              <p>Listen to your recording for this sentence. If you want, you can record it again before moving on.</p>
              <p class=""sentence-stimulus"">The speed limit in New York City was nine mph in 1895.</p>
              <audio controls src=""blob:https://charburnham.github.io/a1cb9561-23da-4039-9d7e-7de8c550cd01"" class=""playback-audio""></audio>
            </div>
          ","0","html-button-response","20","198886","0.0-10.2-2.2","6bqg3s4g4q","","","","","","not_uploaded_rerecorded","15T","The speed limit in New York City was nine mph in 1895.","true","sentence_review","","3","6bqg3s4g4q_15T_audio.webm","rerecord","null"
"2544","
          <div class=""recording-instructions-box"">
            <h2>Read the sentence aloud</h2>
            <p>Take a moment to get ready. When you are ready to begin, click the button below to start recording.</p>
            <p class=""sentence-stimulus"">The speed limit in New York City was nine mph in 1895.</p>
          </div>
        ","0","html-button-response","21","201432","0.0-10.3-0.3","6bqg3s4g4q","","","","","","","15T","The speed limit in New York City was nine mph in 1895.","true","sentence_ready","","","","",""
"6806","
          <div class=""recording-instructions-box"">
            <h2>Recording in progress</h2>
            <p>Please read the sentence naturally, then click the button when you are done.</p>
            <p class=""sentence-stimulus"">The speed limit in New York City was nine mph in 1895.</p>
          </div>
        ","null","html-audio-response","22","208308","0.0-10.3-1.3","6bqg3s4g4q","","","","","3","","15T","The speed limit in New York City was nine mph in 1895.","true","sentence_recording","blob:https://charburnham.github.io/4ecd7964-1110-4f72-8739-91316820e2a5","4","6bqg3s4g4q_15T_audio.webm","",""
"8658","
            <div class=""recording-instructions-box"">
              <h2>Review your recording</h2>
              <p>Listen to your recording for this sentence. If you want, you can record it again before moving on.</p>
              <p class=""sentence-stimulus"">The speed limit in New York City was nine mph in 1895.</p>
              <audio controls src=""blob:https://charburnham.github.io/4ecd7964-1110-4f72-8739-91316820e2a5"" class=""playback-audio""></audio>
            </div>
          ","1","html-button-response","23","216969","0.0-10.3-2.3","6bqg3s4g4q","","","","","","queued","15T","The speed limit in New York City was nine mph in 1895.","true","sentence_review","","4","6bqg3s4g4q_15T_audio.webm","accepted","6bqg3s4g4q_15T_audio.webm"
"6342","
          <div class=""recording-instructions-box"">
            <h2>Read the sentence aloud</h2>
            <p>Take a moment to get ready. When you are ready to begin, click the button below to start recording.</p>
            <p class=""sentence-stimulus"">Camels have three eyelids on each eye.</p>
          </div>
        ","0","html-button-response","24","223317","0.0-11.0-0.0","6bqg3s4g4q","","","","","","","32T","Camels have three eyelids on each eye.","true","sentence_ready","","","","",""
"4027","
          <div class=""recording-instructions-box"">
            <h2>Recording in progress</h2>
            <p>Please read the sentence naturally, then click the button when you are done.</p>
            <p class=""sentence-stimulus"">Camels have three eyelids on each eye.</p>
          </div>
        ","null","html-audio-response","25","227425","0.0-11.0-1.0","6bqg3s4g4q","","","","","3","","32T","Camels have three eyelids on each eye.","true","sentence_recording","blob:https://charburnham.github.io/8c6c0248-9fd3-462e-951d-08120f32f003","1","6bqg3s4g4q_32T_audio.webm","",""
"5119","
            <div class=""recording-instructions-box"">
              <h2>Review your recording</h2>
              <p>Listen to your recording for this sentence. If you want, you can record it again before moving on.</p>
              <p class=""sentence-stimulus"">Camels have three eyelids on each eye.</p>
              <audio controls src=""blob:https://charburnham.github.io/8c6c0248-9fd3-462e-951d-08120f32f003"" class=""playback-audio""></audio>
            </div>
          ","1","html-button-response","26","232547","0.0-11.0-2.0","6bqg3s4g4q","","","","","","queued","32T","Camels have three eyelids on each eye.","true","sentence_review","","1","6bqg3s4g4q_32T_audio.webm","accepted","6bqg3s4g4q_32T_audio.webm"
"3950","
          <div class=""recording-instructions-box"">
            <h2>Read the sentence aloud</h2>
            <p>Take a moment to get ready. When you are ready to begin, click the button below to start recording.</p>
            <p class=""sentence-stimulus"">A shrimp's heart is located in its head.</p>
          </div>
        ","0","html-button-response","27","236499","0.0-12.0-0.0","6bqg3s4g4q","","","","","","","51T","A shrimp's heart is located in its head.","true","sentence_ready","","","","",""
"4395","
          <div class=""recording-instructions-box"">
            <h2>Recording in progress</h2>
            <p>Please read the sentence naturally, then click the button when you are done.</p>
            <p class=""sentence-stimulus"">A shrimp's heart is located in its head.</p>
          </div>
        ","null","html-audio-response","28","240972","0.0-12.0-1.0","6bqg3s4g4q","","","","","2","","51T","A shrimp's heart is located in its head.","true","sentence_recording","blob:https://charburnham.github.io/0bf7a8d8-fb24-4a02-ba90-3f2d182fe477","1","6bqg3s4g4q_51T_audio.webm","",""
"5228","
            <div class=""recording-instructions-box"">
              <h2>Review your recording</h2>
              <p>Listen to your recording for this sentence. If you want, you can record it again before moving on.</p>
              <p class=""sentence-stimulus"">A shrimp's heart is located in its head.</p>
              <audio controls src=""blob:https://charburnham.github.io/0bf7a8d8-fb24-4a02-ba90-3f2d182fe477"" class=""playback-audio""></audio>
            </div>
          ","1","html-button-response","29","246202","0.0-12.0-2.0","6bqg3s4g4q","","","","","","queued","51T","A shrimp's heart is located in its head.","true","sentence_review","","1","6bqg3s4g4q_51T_audio.webm","accepted","6bqg3s4g4q_51T_audio.webm"
"7033","
          <div class=""recording-instructions-box"">
            <h2>Read the sentence aloud</h2>
            <p>Take a moment to get ready. When you are ready to begin, click the button below to start recording.</p>
            <p class=""sentence-stimulus"">Jupiter's mass is more than 400 times that of the earth.</p>
          </div>
        ","0","html-button-response","30","253239","0.0-13.0-0.0","6bqg3s4g4q","","","","","","","52F","Jupiter's mass is more than 400 times that of the earth.","false","sentence_ready","","","","",""
"5930","
          <div class=""recording-instructions-box"">
            <h2>Recording in progress</h2>
            <p>Please read the sentence naturally, then click the button when you are done.</p>
            <p class=""sentence-stimulus"">Jupiter's mass is more than 400 times that of the earth.</p>
          </div>
        ","null","html-audio-response","31","259242","0.0-13.0-1.0","6bqg3s4g4q","","","","","2","","52F","Jupiter's mass is more than 400 times that of the earth.","false","sentence_recording","blob:https://charburnham.github.io/53fa908f-5fbe-4126-93f1-d2d7db61b059","1","6bqg3s4g4q_52F_audio.webm","",""
"7053","
            <div class=""recording-instructions-box"">
              <h2>Review your recording</h2>
              <p>Listen to your recording for this sentence. If you want, you can record it again before moving on.</p>
              <p class=""sentence-stimulus"">Jupiter's mass is more than 400 times that of the earth.</p>
              <audio controls src=""blob:https://charburnham.github.io/53fa908f-5fbe-4126-93f1-d2d7db61b059"" class=""playback-audio""></audio>
            </div>
          ","0","html-button-response","32","266298","0.0-13.0-2.0","6bqg3s4g4q","","","","","","not_uploaded_rerecorded","52F","Jupiter's mass is more than 400 times that of the earth.","false","sentence_review","","1","6bqg3s4g4q_52F_audio.webm","rerecord","null"
"1920","
          <div class=""recording-instructions-box"">
            <h2>Read the sentence aloud</h2>
            <p>Take a moment to get ready. When you are ready to begin, click the button below to start recording.</p>
            <p class=""sentence-stimulus"">Jupiter's mass is more than 400 times that of the earth.</p>
          </div>
        ","0","html-button-response","33","268219","0.0-13.1-0.1","6bqg3s4g4q","","","","","","","52F","Jupiter's mass is more than 400 times that of the earth.","false","sentence_ready","","","","",""
"5124","
          <div class=""recording-instructions-box"">
            <h2>Recording in progress</h2>
            <p>Please read the sentence naturally, then click the button when you are done.</p>
            <p class=""sentence-stimulus"">Jupiter's mass is more than 400 times that of the earth.</p>
          </div>
        ","null","html-audio-response","34","273427","0.0-13.1-1.1","6bqg3s4g4q","","","","","10","","52F","Jupiter's mass is more than 400 times that of the earth.","false","sentence_recording","blob:https://charburnham.github.io/e5b884f8-9bad-41f5-9e74-bfc30173715c","2","6bqg3s4g4q_52F_audio.webm","",""
"6062","
            <div class=""recording-instructions-box"">
              <h2>Review your recording</h2>
              <p>Listen to your recording for this sentence. If you want, you can record it again before moving on.</p>
              <p class=""sentence-stimulus"">Jupiter's mass is more than 400 times that of the earth.</p>
              <audio controls src=""blob:https://charburnham.github.io/e5b884f8-9bad-41f5-9e74-bfc30173715c"" class=""playback-audio""></audio>
            </div>
          ","1","html-button-response","35","279491","0.0-13.1-2.1","6bqg3s4g4q","","","","","","queued","52F","Jupiter's mass is more than 400 times that of the earth.","false","sentence_review","","2","6bqg3s4g4q_52F_audio.webm","accepted","6bqg3s4g4q_52F_audio.webm"
"26849","
          <div class=""recording-instructions-box"">
            <h2>Read the sentence aloud</h2>
            <p>Take a moment to get ready. When you are ready to begin, click the button below to start recording.</p>
            <p class=""sentence-stimulus"">The center of a star can be over 50 million degrees Fahrenheit.</p>
          </div>
        ","0","html-button-response","36","306345","0.0-14.0-0.0","6bqg3s4g4q","","","","","","","48T","The center of a star can be over 50 million degrees Fahrenheit.","true","sentence_ready","","","","",""
"7697","
          <div class=""recording-instructions-box"">
            <h2>Recording in progress</h2>
            <p>Please read the sentence naturally, then click the button when you are done.</p>
            <p class=""sentence-stimulus"">The center of a star can be over 50 million degrees Fahrenheit.</p>
          </div>
        ","null","html-audio-response","37","314126","0.0-14.0-1.0","6bqg3s4g4q","","","","","2","","48T","The center of a star can be over 50 million degrees Fahrenheit.","true","sentence_recording","blob:https://charburnham.github.io/391a6968-0d74-440f-ae7c-e94cb42f8738","1","6bqg3s4g4q_48T_audio.webm","",""
"923","
            <div class=""recording-instructions-box"">
              <h2>Review your recording</h2>
              <p>Listen to your recording for this sentence. If you want, you can record it again before moving on.</p>
              <p class=""sentence-stimulus"">The center of a star can be over 50 million degrees Fahrenheit.</p>
              <audio controls src=""blob:https://charburnham.github.io/391a6968-0d74-440f-ae7c-e94cb42f8738"" class=""playback-audio""></audio>
            </div>
          ","0","html-button-response","38","315052","0.0-14.0-2.0","6bqg3s4g4q","","","","","","not_uploaded_rerecorded","48T","The center of a star can be over 50 million degrees Fahrenheit.","true","sentence_review","","1","6bqg3s4g4q_48T_audio.webm","rerecord","null"
"6886","
          <div class=""recording-instructions-box"">
            <h2>Read the sentence aloud</h2>
            <p>Take a moment to get ready. When you are ready to begin, click the button below to start recording.</p>
            <p class=""sentence-stimulus"">The center of a star can be over 50 million degrees Fahrenheit.</p>
          </div>
        ","0","html-button-response","39","321940","0.0-14.1-0.1","6bqg3s4g4q","","","","","","","48T","The center of a star can be over 50 million degrees Fahrenheit.","true","sentence_ready","","","","",""
"6080","
          <div class=""recording-instructions-box"">
            <h2>Recording in progress</h2>
            <p>Please read the sentence naturally, then click the button when you are done.</p>
            <p class=""sentence-stimulus"">The center of a star can be over 50 million degrees Fahrenheit.</p>
          </div>
        ","null","html-audio-response","40","328096","0.0-14.1-1.1","6bqg3s4g4q","","","","","3","","48T","The center of a star can be over 50 million degrees Fahrenheit.","true","sentence_recording","blob:https://charburnham.github.io/745a283a-833c-4c90-8298-a1cadb0317f9","2","6bqg3s4g4q_48T_audio.webm","",""
"7449","
            <div class=""recording-instructions-box"">
              <h2>Review your recording</h2>
              <p>Listen to your recording for this sentence. If you want, you can record it again before moving on.</p>
              <p class=""sentence-stimulus"">The center of a star can be over 50 million degrees Fahrenheit.</p>
              <audio controls src=""blob:https://charburnham.github.io/745a283a-833c-4c90-8298-a1cadb0317f9"" class=""playback-audio""></audio>
            </div>
          ","1","html-button-response","41","335547","0.0-14.1-2.1","6bqg3s4g4q","","","","","","queued","48T","The center of a star can be over 50 million degrees Fahrenheit.","true","sentence_review","","2","6bqg3s4g4q_48T_audio.webm","accepted","6bqg3s4g4q_48T_audio.webm"
"10212","
          <div class=""recording-instructions-box"">
            <h2>Read the sentence aloud</h2>
            <p>Take a moment to get ready. When you are ready to begin, click the button below to start recording.</p>
            <p class=""sentence-stimulus"">Half your body's red blood cells are replaced every three days.</p>
          </div>
        ","0","html-button-response","42","345763","0.0-15.0-0.0","6bqg3s4g4q","","","","","","","21F","Half your body's red blood cells are replaced every three days.","false","sentence_ready","","","","",""
"5495","
          <div class=""recording-instructions-box"">
            <h2>Recording in progress</h2>
            <p>Please read the sentence naturally, then click the button when you are done.</p>
            <p class=""sentence-stimulus"">Half your body's red blood cells are replaced every three days.</p>
          </div>
        ","null","html-audio-response","43","351338","0.0-15.0-1.0","6bqg3s4g4q","","","","","3","","21F","Half your body's red blood cells are replaced every three days.","false","sentence_recording","blob:https://charburnham.github.io/b073a161-1b1c-437a-a08c-bef9420e02b1","1","6bqg3s4g4q_21F_audio.webm","",""
"6773","
            <div class=""recording-instructions-box"">
              <h2>Review your recording</h2>
              <p>Listen to your recording for this sentence. If you want, you can record it again before moving on.</p>
              <p class=""sentence-stimulus"">Half your body's red blood cells are replaced every three days.</p>
              <audio controls src=""blob:https://charburnham.github.io/b073a161-1b1c-437a-a08c-bef9420e02b1"" class=""playback-audio""></audio>
            </div>
          ","1","html-button-response","44","358114","0.0-15.0-2.0","6bqg3s4g4q","","","","","","queued","21F","Half your body's red blood cells are replaced every three days.","false","sentence_review","","1","6bqg3s4g4q_21F_audio.webm","accepted","6bqg3s4g4q_21F_audio.webm"
"14512","
          <div class=""recording-instructions-box"">
            <h2>Read the sentence aloud</h2>
            <p>Take a moment to get ready. When you are ready to begin, click the button below to start recording.</p>
            <p class=""sentence-stimulus"">Camel's milk curdles faster than cow's milk.</p>
          </div>
        ","0","html-button-response","45","372630","0.0-16.0-0.0","6bqg3s4g4q","","","","","","","7F","Camel's milk curdles faster than cow's milk.","false","sentence_ready","","","","",""
"5203","
          <div class=""recording-instructions-box"">
            <h2>Recording in progress</h2>
            <p>Please read the sentence naturally, then click the button when you are done.</p>
            <p class=""sentence-stimulus"">Camel's milk curdles faster than cow's milk.</p>
          </div>
        ","null","html-audio-response","46","377918","0.0-16.0-1.0","6bqg3s4g4q","","","","","3","","7F","Camel's milk curdles faster than cow's milk.","false","sentence_recording","blob:https://charburnham.github.io/6a87b44e-7594-4fb5-bcba-fb0d1575fe34","1","6bqg3s4g4q_7F_audio.webm","",""
"5817","
            <div class=""recording-instructions-box"">
              <h2>Review your recording</h2>
              <p>Listen to your recording for this sentence. If you want, you can record it again before moving on.</p>
              <p class=""sentence-stimulus"">Camel's milk curdles faster than cow's milk.</p>
              <audio controls src=""blob:https://charburnham.github.io/6a87b44e-7594-4fb5-bcba-fb0d1575fe34"" class=""playback-audio""></audio>
            </div>
          ","1","html-button-response","47","383738","0.0-16.0-2.0","6bqg3s4g4q","","","","","","queued","7F","Camel's milk curdles faster than cow's milk.","false","sentence_review","","1","6bqg3s4g4q_7F_audio.webm","accepted","6bqg3s4g4q_7F_audio.webm"
"35928","
          <div class=""recording-instructions-box"">
            <h2>Read the sentence aloud</h2>
            <p>Take a moment to get ready. When you are ready to begin, click the button below to start recording.</p>
            <p class=""sentence-stimulus"">Montpelier, Vermont is the only U.S. state capital without a McDonalds.</p>
          </div>
        ","0","html-button-response","48","419671","0.0-17.0-0.0","6bqg3s4g4q","","","","","","","29T","Montpelier, Vermont is the only U.S. state capital without a McDonalds.","true","sentence_ready","","","","",""
"6357","
          <div class=""recording-instructions-box"">
            <h2>Recording in progress</h2>
            <p>Please read the sentence naturally, then click the button when you are done.</p>
            <p class=""sentence-stimulus"">Montpelier, Vermont is the only U.S. state capital without a McDonalds.</p>
          </div>
        ","null","html-audio-response","49","426107","0.0-17.0-1.0","6bqg3s4g4q","","","","","3","","29T","Montpelier, Vermont is the only U.S. state capital without a McDonalds.","true","sentence_recording","blob:https://charburnham.github.io/c7b6c248-1324-4ff2-8a29-0bd5fa73e905","1","6bqg3s4g4q_29T_audio.webm","",""
"11628","
            <div class=""recording-instructions-box"">
              <h2>Review your recording</h2>
              <p>Listen to your recording for this sentence. If you want, you can record it again before moving on.</p>
              <p class=""sentence-stimulus"">Montpelier, Vermont is the only U.S. state capital without a McDonalds.</p>
              <audio controls src=""blob:https://charburnham.github.io/c7b6c248-1324-4ff2-8a29-0bd5fa73e905"" class=""playback-audio""></audio>
            </div>
          ","1","html-button-response","50","437738","0.0-17.0-2.0","6bqg3s4g4q","","","","","","queued","29T","Montpelier, Vermont is the only U.S. state capital without a McDonalds.","true","sentence_review","","1","6bqg3s4g4q_29T_audio.webm","accepted","6bqg3s4g4q_29T_audio.webm"
"7174","
          <div class=""recording-instructions-box"">
            <h2>Read the sentence aloud</h2>
            <p>Take a moment to get ready. When you are ready to begin, click the button below to start recording.</p>
            <p class=""sentence-stimulus"">France's land area is smaller than Colombia's.</p>
          </div>
        ","0","html-button-response","51","444915","0.0-18.0-0.0","6bqg3s4g4q","","","","","","","36T","France's land area is smaller than Colombia's.","true","sentence_ready","","","","",""
"2587","
          <div class=""recording-instructions-box"">
            <h2>Recording in progress</h2>
            <p>Please read the sentence naturally, then click the button when you are done.</p>
            <p class=""sentence-stimulus"">France's land area is smaller than Colombia's.</p>
          </div>
        ","null","html-audio-response","52","447565","0.0-18.0-1.0","6bqg3s4g4q","","","","","3","","36T","France's land area is smaller than Colombia's.","true","sentence_recording","blob:https://charburnham.github.io/0377d0f9-380f-4b54-9710-48b8217007e5","1","6bqg3s4g4q_36T_audio.webm","",""
"97111","
            <div class=""recording-instructions-box"">
              <h2>Review your recording</h2>
              <p>Listen to your recording for this sentence. If you want, you can record it again before moving on.</p>
              <p class=""sentence-stimulus"">France's land area is smaller than Colombia's.</p>
              <audio controls src=""blob:https://charburnham.github.io/0377d0f9-380f-4b54-9710-48b8217007e5"" class=""playback-audio""></audio>
            </div>
          ","0","html-button-response","53","544680","0.0-18.0-2.0","6bqg3s4g4q","","","","","","not_uploaded_rerecorded","36T","France's land area is smaller than Colombia's.","true","sentence_review","","1","6bqg3s4g4q_36T_audio.webm","rerecord","null"
"6433","
          <div class=""recording-instructions-box"">
            <h2>Read the sentence aloud</h2>
            <p>Take a moment to get ready. When you are ready to begin, click the button below to start recording.</p>
            <p class=""sentence-stimulus"">France's land area is smaller than Colombia's.</p>
          </div>
        ","0","html-button-response","54","551114","0.0-18.1-0.1","6bqg3s4g4q","","","","","","","36T","France's land area is smaller than Colombia's.","true","sentence_ready","","","","",""
"4363","
          <div class=""recording-instructions-box"">
            <h2>Recording in progress</h2>
            <p>Please read the sentence naturally, then click the button when you are done.</p>
            <p class=""sentence-stimulus"">France's land area is smaller than Colombia's.</p>
          </div>
        ","null","html-audio-response","55","555542","0.0-18.1-1.1","6bqg3s4g4q","","","","","3","","36T","France's land area is smaller than Colombia's.","true","sentence_recording","blob:https://charburnham.github.io/2c31f652-bd71-444d-b56a-e5a79977b876","2","6bqg3s4g4q_36T_audio.webm","",""
"5568","
            <div class=""recording-instructions-box"">
              <h2>Review your recording</h2>
              <p>Listen to your recording for this sentence. If you want, you can record it again before moving on.</p>
              <p class=""sentence-stimulus"">France's land area is smaller than Colombia's.</p>
              <audio controls src=""blob:https://charburnham.github.io/2c31f652-bd71-444d-b56a-e5a79977b876"" class=""playback-audio""></audio>
            </div>
          ","1","html-button-response","56","561112","0.0-18.1-2.1","6bqg3s4g4q","","","","","","queued","36T","France's land area is smaller than Colombia's.","true","sentence_review","","2","6bqg3s4g4q_36T_audio.webm","accepted","6bqg3s4g4q_36T_audio.webm"
"29955","
          <div class=""recording-instructions-box"">
            <h2>Read the sentence aloud</h2>
            <p>Take a moment to get ready. When you are ready to begin, click the button below to start recording.</p>
            <p class=""sentence-stimulus"">Honduras currently has the highest murder rate of any country in the world.</p>
          </div>
        ","0","html-button-response","57","591072","0.0-19.0-0.0","6bqg3s4g4q","","","","","","","F18T","Honduras currently has the highest murder rate of any country in the world.","true","sentence_ready","","","","",""
"5942","
          <div class=""recording-instructions-box"">
            <h2>Recording in progress</h2>
            <p>Please read the sentence naturally, then click the button when you are done.</p>
            <p class=""sentence-stimulus"">Honduras currently has the highest murder rate of any country in the world.</p>
          </div>
        ","null","html-audio-response","58","597091","0.0-19.0-1.0","6bqg3s4g4q","","","","","3","","F18T","Honduras currently has the highest murder rate of any country in the world.","true","sentence_recording","blob:https://charburnham.github.io/a006460a-1185-48cf-a9e8-28d61f32c90f","1","6bqg3s4g4q_F18T_audio.webm","",""
"8047","
            <div class=""recording-instructions-box"">
              <h2>Review your recording</h2>
              <p>Listen to your recording for this sentence. If you want, you can record it again before moving on.</p>
              <p class=""sentence-stimulus"">Honduras currently has the highest murder rate of any country in the world.</p>
              <audio controls src=""blob:https://charburnham.github.io/a006460a-1185-48cf-a9e8-28d61f32c90f"" class=""playback-audio""></audio>
            </div>
          ","1","html-button-response","59","605140","0.0-19.0-2.0","6bqg3s4g4q","","","","","","queued","F18T","Honduras currently has the highest murder rate of any country in the world.","true","sentence_review","","1","6bqg3s4g4q_F18T_audio.webm","accepted","6bqg3s4g4q_F18T_audio.webm"
"3871","
          <div class=""recording-instructions-box"">
            <h2>Read the sentence aloud</h2>
            <p>Take a moment to get ready. When you are ready to begin, click the button below to start recording.</p>
            <p class=""sentence-stimulus"">Only female mosquitoes bite.</p>
          </div>
        ","0","html-button-response","60","609015","0.0-20.0-0.0","6bqg3s4g4q","","","","","","","50T","Only female mosquitoes bite.","true","sentence_ready","","","","",""
"3136","
          <div class=""recording-instructions-box"">
            <h2>Recording in progress</h2>
            <p>Please read the sentence naturally, then click the button when you are done.</p>
            <p class=""sentence-stimulus"">Only female mosquitoes bite.</p>
          </div>
        ","null","html-audio-response","61","612223","0.0-20.0-1.0","6bqg3s4g4q","","","","","2","","50T","Only female mosquitoes bite.","true","sentence_recording","blob:https://charburnham.github.io/360f847c-61dc-477a-b400-2937e1fa2970","1","6bqg3s4g4q_50T_audio.webm","",""
"3967","
            <div class=""recording-instructions-box"">
              <h2>Review your recording</h2>
              <p>Listen to your recording for this sentence. If you want, you can record it again before moving on.</p>
              <p class=""sentence-stimulus"">Only female mosquitoes bite.</p>
              <audio controls src=""blob:https://charburnham.github.io/360f847c-61dc-477a-b400-2937e1fa2970"" class=""playback-audio""></audio>
            </div>
          ","0","html-button-response","62","616193","0.0-20.0-2.0","6bqg3s4g4q","","","","","","not_uploaded_rerecorded","50T","Only female mosquitoes bite.","true","sentence_review","","1","6bqg3s4g4q_50T_audio.webm","rerecord","null"
"1773","
          <div class=""recording-instructions-box"">
            <h2>Read the sentence aloud</h2>
            <p>Take a moment to get ready. When you are ready to begin, click the button below to start recording.</p>
            <p class=""sentence-stimulus"">Only female mosquitoes bite.</p>
          </div>
        ","0","html-button-response","63","617967","0.0-20.1-0.1","6bqg3s4g4q","","","","","","","50T","Only female mosquitoes bite.","true","sentence_ready","","","","",""
"2758","
          <div class=""recording-instructions-box"">
            <h2>Recording in progress</h2>
            <p>Please read the sentence naturally, then click the button when you are done.</p>
            <p class=""sentence-stimulus"">Only female mosquitoes bite.</p>
          </div>
        ","null","html-audio-response","64","620803","0.0-20.1-1.1","6bqg3s4g4q","","","","","3","","50T","Only female mosquitoes bite.","true","sentence_recording","blob:https://charburnham.github.io/48626665-5002-43d3-aef1-c9f3f6bba102","2","6bqg3s4g4q_50T_audio.webm","",""
"7178","
            <div class=""recording-instructions-box"">
              <h2>Review your recording</h2>
              <p>Listen to your recording for this sentence. If you want, you can record it again before moving on.</p>
              <p class=""sentence-stimulus"">Only female mosquitoes bite.</p>
              <audio controls src=""blob:https://charburnham.github.io/48626665-5002-43d3-aef1-c9f3f6bba102"" class=""playback-audio""></audio>
            </div>
          ","1","html-button-response","65","627985","0.0-20.1-2.1","6bqg3s4g4q","","","","","","queued","50T","Only female mosquitoes bite.","true","sentence_review","","2","6bqg3s4g4q_50T_audio.webm","accepted","6bqg3s4g4q_50T_audio.webm"
"6242","
          <div class=""recording-instructions-box"">
            <h2>Read the sentence aloud</h2>
            <p>Take a moment to get ready. When you are ready to begin, click the button below to start recording.</p>
            <p class=""sentence-stimulus"">A jellyfish is more than 95% water.</p>
          </div>
        ","0","html-button-response","66","634230","0.0-21.0-0.0","6bqg3s4g4q","","","","","","","F9T","A jellyfish is more than 95% water.","true","sentence_ready","","","","",""
"4348","
          <div class=""recording-instructions-box"">
            <h2>Recording in progress</h2>
            <p>Please read the sentence naturally, then click the button when you are done.</p>
            <p class=""sentence-stimulus"">A jellyfish is more than 95% water.</p>
          </div>
        ","null","html-audio-response","67","638657","0.0-21.0-1.0","6bqg3s4g4q","","","","","3","","F9T","A jellyfish is more than 95% water.","true","sentence_recording","blob:https://charburnham.github.io/159d6d75-3f52-486e-ad8c-0ad3a28ff4a3","1","6bqg3s4g4q_F9T_audio.webm","",""
"856","
            <div class=""recording-instructions-box"">
              <h2>Review your recording</h2>
              <p>Listen to your recording for this sentence. If you want, you can record it again before moving on.</p>
              <p class=""sentence-stimulus"">A jellyfish is more than 95% water.</p>
              <audio controls src=""blob:https://charburnham.github.io/159d6d75-3f52-486e-ad8c-0ad3a28ff4a3"" class=""playback-audio""></audio>
            </div>
          ","0","html-button-response","68","639515","0.0-21.0-2.0","6bqg3s4g4q","","","","","","not_uploaded_rerecorded","F9T","A jellyfish is more than 95% water.","true","sentence_review","","1","6bqg3s4g4q_F9T_audio.webm","rerecord","null"
"3270","
          <div class=""recording-instructions-box"">
            <h2>Read the sentence aloud</h2>
            <p>Take a moment to get ready. When you are ready to begin, click the button below to start recording.</p>
            <p class=""sentence-stimulus"">A jellyfish is more than 95% water.</p>
          </div>
        ","0","html-button-response","69","642786","0.0-21.1-0.1","6bqg3s4g4q","","","","","","","F9T","A jellyfish is more than 95% water.","true","sentence_ready","","","","",""
"2745","
          <div class=""recording-instructions-box"">
            <h2>Recording in progress</h2>
            <p>Please read the sentence naturally, then click the button when you are done.</p>
            <p class=""sentence-stimulus"">A jellyfish is more than 95% water.</p>
          </div>
        ","null","html-audio-response","70","645614","0.0-21.1-1.1","6bqg3s4g4q","","","","","3","","F9T","A jellyfish is more than 95% water.","true","sentence_recording","blob:https://charburnham.github.io/ccecb621-0937-4ca8-8451-8e636871abb6","2","6bqg3s4g4q_F9T_audio.webm","",""
"1087","
            <div class=""recording-instructions-box"">
              <h2>Review your recording</h2>
              <p>Listen to your recording for this sentence. If you want, you can record it again before moving on.</p>
              <p class=""sentence-stimulus"">A jellyfish is more than 95% water.</p>
              <audio controls src=""blob:https://charburnham.github.io/ccecb621-0937-4ca8-8451-8e636871abb6"" class=""playback-audio""></audio>
            </div>
          ","0","html-button-response","71","646703","0.0-21.1-2.1","6bqg3s4g4q","","","","","","not_uploaded_rerecorded","F9T","A jellyfish is more than 95% water.","true","sentence_review","","2","6bqg3s4g4q_F9T_audio.webm","rerecord","null"
"1016","
          <div class=""recording-instructions-box"">
            <h2>Read the sentence aloud</h2>
            <p>Take a moment to get ready. When you are ready to begin, click the button below to start recording.</p>
            <p class=""sentence-stimulus"">A jellyfish is more than 95% water.</p>
          </div>
        ","0","html-button-response","72","647720","0.0-21.2-0.2","6bqg3s4g4q","","","","","","","F9T","A jellyfish is more than 95% water.","true","sentence_ready","","","","",""
"4018","
          <div class=""recording-instructions-box"">
            <h2>Recording in progress</h2>
            <p>Please read the sentence naturally, then click the button when you are done.</p>
            <p class=""sentence-stimulus"">A jellyfish is more than 95% water.</p>
          </div>
        ","null","html-audio-response","73","651821","0.0-21.2-1.2","6bqg3s4g4q","","","","","3","","F9T","A jellyfish is more than 95% water.","true","sentence_recording","blob:https://charburnham.github.io/d084bf30-eff6-407f-8d54-6b8907d4f047","3","6bqg3s4g4q_F9T_audio.webm","",""
"7968","
            <div class=""recording-instructions-box"">
              <h2>Review your recording</h2>
              <p>Listen to your recording for this sentence. If you want, you can record it again before moving on.</p>
              <p class=""sentence-stimulus"">A jellyfish is more than 95% water.</p>
              <audio controls src=""blob:https://charburnham.github.io/d084bf30-eff6-407f-8d54-6b8907d4f047"" class=""playback-audio""></audio>
            </div>
          ","1","html-button-response","74","659792","0.0-21.2-2.2","6bqg3s4g4q","","","","","","queued","F9T","A jellyfish is more than 95% water.","true","sentence_review","","3","6bqg3s4g4q_F9T_audio.webm","accepted","6bqg3s4g4q_F9T_audio.webm"
"8187","
          <div class=""recording-instructions-box"">
            <h2>Read the sentence aloud</h2>
            <p>Take a moment to get ready. When you are ready to begin, click the button below to start recording.</p>
            <p class=""sentence-stimulus"">In Ancient Egypt, a yard was the length of a man's arm span.</p>
          </div>
        ","0","html-button-response","75","667982","0.0-22.0-0.0","6bqg3s4g4q","","","","","","","F15F","In Ancient Egypt, a yard was the length of a man's arm span.","false","sentence_ready","","","","",""
"5669","
          <div class=""recording-instructions-box"">
            <h2>Recording in progress</h2>
            <p>Please read the sentence naturally, then click the button when you are done.</p>
            <p class=""sentence-stimulus"">In Ancient Egypt, a yard was the length of a man's arm span.</p>
          </div>
        ","null","html-audio-response","76","673728","0.0-22.0-1.0","6bqg3s4g4q","","","","","3","","F15F","In Ancient Egypt, a yard was the length of a man's arm span.","false","sentence_recording","blob:https://charburnham.github.io/5c6ac0f7-bdd7-4864-a9cc-bc7b29ef959a","1","6bqg3s4g4q_F15F_audio.webm","",""
"1734","
            <div class=""recording-instructions-box"">
              <h2>Review your recording</h2>
              <p>Listen to your recording for this sentence. If you want, you can record it again before moving on.</p>
              <p class=""sentence-stimulus"">In Ancient Egypt, a yard was the length of a man's arm span.</p>
              <audio controls src=""blob:https://charburnham.github.io/5c6ac0f7-bdd7-4864-a9cc-bc7b29ef959a"" class=""playback-audio""></audio>
            </div>
          ","0","html-button-response","77","675464","0.0-22.0-2.0","6bqg3s4g4q","","","","","","not_uploaded_rerecorded","F15F","In Ancient Egypt, a yard was the length of a man's arm span.","false","sentence_review","","1","6bqg3s4g4q_F15F_audio.webm","rerecord","null"
"1051","
          <div class=""recording-instructions-box"">
            <h2>Read the sentence aloud</h2>
            <p>Take a moment to get ready. When you are ready to begin, click the button below to start recording.</p>
            <p class=""sentence-stimulus"">In Ancient Egypt, a yard was the length of a man's arm span.</p>
          </div>
        ","0","html-button-response","78","676517","0.0-22.1-0.1","6bqg3s4g4q","","","","","","","F15F","In Ancient Egypt, a yard was the length of a man's arm span.","false","sentence_ready","","","","",""
"5508","
          <div class=""recording-instructions-box"">
            <h2>Recording in progress</h2>
            <p>Please read the sentence naturally, then click the button when you are done.</p>
            <p class=""sentence-stimulus"">In Ancient Egypt, a yard was the length of a man's arm span.</p>
          </div>
        ","null","html-audio-response","79","682097","0.0-22.1-1.1","6bqg3s4g4q","","","","","3","","F15F","In Ancient Egypt, a yard was the length of a man's arm span.","false","sentence_recording","blob:https://charburnham.github.io/3f2d9ada-06ee-431e-afb4-fbbd30589cfb","2","6bqg3s4g4q_F15F_audio.webm","",""
"12450","
            <div class=""recording-instructions-box"">
              <h2>Review your recording</h2>
              <p>Listen to your recording for this sentence. If you want, you can record it again before moving on.</p>
              <p class=""sentence-stimulus"">In Ancient Egypt, a yard was the length of a man's arm span.</p>
              <audio controls src=""blob:https://charburnham.github.io/3f2d9ada-06ee-431e-afb4-fbbd30589cfb"" class=""playback-audio""></audio>
            </div>
          ","1","html-button-response","80","694550","0.0-22.1-2.1","6bqg3s4g4q","","","","","","queued","F15F","In Ancient Egypt, a yard was the length of a man's arm span.","false","sentence_review","","2","6bqg3s4g4q_F15F_audio.webm","accepted","6bqg3s4g4q_F15F_audio.webm"
"14278","
          <div class=""recording-instructions-box"">
            <h2>Read the sentence aloud</h2>
            <p>Take a moment to get ready. When you are ready to begin, click the button below to start recording.</p>
            <p class=""sentence-stimulus"">The cheetah is the only cat that cannot retract its claws.</p>
          </div>
        ","0","html-button-response","81","708832","0.0-23.0-0.0","6bqg3s4g4q","","","","","","","43T","The cheetah is the only cat that cannot retract its claws.","true","sentence_ready","","","","",""
"5143","
          <div class=""recording-instructions-box"">
            <h2>Recording in progress</h2>
            <p>Please read the sentence naturally, then click the button when you are done.</p>
            <p class=""sentence-stimulus"">The cheetah is the only cat that cannot retract its claws.</p>
          </div>
        ","null","html-audio-response","82","714058","0.0-23.0-1.0","6bqg3s4g4q","","","","","3","","43T","The cheetah is the only cat that cannot retract its claws.","true","sentence_recording","blob:https://charburnham.github.io/bebfa7e9-0501-44f1-b0b0-3b9746022846","1","6bqg3s4g4q_43T_audio.webm","",""
"881","
            <div class=""recording-instructions-box"">
              <h2>Review your recording</h2>
              <p>Listen to your recording for this sentence. If you want, you can record it again before moving on.</p>
              <p class=""sentence-stimulus"">The cheetah is the only cat that cannot retract its claws.</p>
              <audio controls src=""blob:https://charburnham.github.io/bebfa7e9-0501-44f1-b0b0-3b9746022846"" class=""playback-audio""></audio>
            </div>
          ","0","html-button-response","83","714941","0.0-23.0-2.0","6bqg3s4g4q","","","","","","not_uploaded_rerecorded","43T","The cheetah is the only cat that cannot retract its claws.","true","sentence_review","","1","6bqg3s4g4q_43T_audio.webm","rerecord","null"
"1733","
          <div class=""recording-instructions-box"">
            <h2>Read the sentence aloud</h2>
            <p>Take a moment to get ready. When you are ready to begin, click the button below to start recording.</p>
            <p class=""sentence-stimulus"">The cheetah is the only cat that cannot retract its claws.</p>
          </div>
        ","0","html-button-response","84","716675","0.0-23.1-0.1","6bqg3s4g4q","","","","","","","43T","The cheetah is the only cat that cannot retract its claws.","true","sentence_ready","","","","",""
"2913","
          <div class=""recording-instructions-box"">
            <h2>Recording in progress</h2>
            <p>Please read the sentence naturally, then click the button when you are done.</p>
            <p class=""sentence-stimulus"">The cheetah is the only cat that cannot retract its claws.</p>
          </div>
        ","null","html-audio-response","85","719655","0.0-23.1-1.1","6bqg3s4g4q","","","","","2","","43T","The cheetah is the only cat that cannot retract its claws.","true","sentence_recording","blob:https://charburnham.github.io/d7900f1d-43cb-4812-aab2-622defcce1f3","2","6bqg3s4g4q_43T_audio.webm","",""
"886","
            <div class=""recording-instructions-box"">
              <h2>Review your recording</h2>
              <p>Listen to your recording for this sentence. If you want, you can record it again before moving on.</p>
              <p class=""sentence-stimulus"">The cheetah is the only cat that cannot retract its claws.</p>
              <audio controls src=""blob:https://charburnham.github.io/d7900f1d-43cb-4812-aab2-622defcce1f3"" class=""playback-audio""></audio>
            </div>
          ","0","html-button-response","86","720543","0.0-23.1-2.1","6bqg3s4g4q","","","","","","not_uploaded_rerecorded","43T","The cheetah is the only cat that cannot retract its claws.","true","sentence_review","","2","6bqg3s4g4q_43T_audio.webm","rerecord","null"
"1321","
          <div class=""recording-instructions-box"">
            <h2>Read the sentence aloud</h2>
            <p>Take a moment to get ready. When you are ready to begin, click the button below to start recording.</p>
            <p class=""sentence-stimulus"">The cheetah is the only cat that cannot retract its claws.</p>
          </div>
        ","0","html-button-response","87","721866","0.0-23.2-0.2","6bqg3s4g4q","","","","","","","43T","The cheetah is the only cat that cannot retract its claws.","true","sentence_ready","","","","",""
"4578","
          <div class=""recording-instructions-box"">
            <h2>Recording in progress</h2>
            <p>Please read the sentence naturally, then click the button when you are done.</p>
            <p class=""sentence-stimulus"">The cheetah is the only cat that cannot retract its claws.</p>
          </div>
        ","null","html-audio-response","88","726519","0.0-23.2-1.2","6bqg3s4g4q","","","","","1","","43T","The cheetah is the only cat that cannot retract its claws.","true","sentence_recording","blob:https://charburnham.github.io/b84ee453-eebe-4b5c-a75d-4ab5d3ceec8d","3","6bqg3s4g4q_43T_audio.webm","",""
"5832","
            <div class=""recording-instructions-box"">
              <h2>Review your recording</h2>
              <p>Listen to your recording for this sentence. If you want, you can record it again before moving on.</p>
              <p class=""sentence-stimulus"">The cheetah is the only cat that cannot retract its claws.</p>
              <audio controls src=""blob:https://charburnham.github.io/b84ee453-eebe-4b5c-a75d-4ab5d3ceec8d"" class=""playback-audio""></audio>
            </div>
          ","1","html-button-response","89","732353","0.0-23.2-2.2","6bqg3s4g4q","","","","","","queued","43T","The cheetah is the only cat that cannot retract its claws.","true","sentence_review","","3","6bqg3s4g4q_43T_audio.webm","accepted","6bqg3s4g4q_43T_audio.webm"
"17630","
          <div class=""recording-instructions-box"">
            <h2>Read the sentence aloud</h2>
            <p>Take a moment to get ready. When you are ready to begin, click the button below to start recording.</p>
            <p class=""sentence-stimulus"">Jupiter's mass is approximately 317 times earth's.</p>
          </div>
        ","0","html-button-response","90","749985","0.0-24.0-0.0","6bqg3s4g4q","","","","","","","52T","Jupiter's mass is approximately 317 times earth's.","true","sentence_ready","","","","",""
"5153","
          <div class=""recording-instructions-box"">
            <h2>Recording in progress</h2>
            <p>Please read the sentence naturally, then click the button when you are done.</p>
            <p class=""sentence-stimulus"">Jupiter's mass is approximately 317 times earth's.</p>
          </div>
        ","null","html-audio-response","91","755218","0.0-24.0-1.0","6bqg3s4g4q","","","","","3","","52T","Jupiter's mass is approximately 317 times earth's.","true","sentence_recording","blob:https://charburnham.github.io/39283731-5c09-4875-b172-4173a8b43278","1","6bqg3s4g4q_52T_audio.webm","",""
"27941","
            <div class=""recording-instructions-box"">
              <h2>Review your recording</h2>
              <p>Listen to your recording for this sentence. If you want, you can record it again before moving on.</p>
              <p class=""sentence-stimulus"">Jupiter's mass is approximately 317 times earth's.</p>
              <audio controls src=""blob:https://charburnham.github.io/39283731-5c09-4875-b172-4173a8b43278"" class=""playback-audio""></audio>
            </div>
          ","0","html-button-response","92","783162","0.0-24.0-2.0","6bqg3s4g4q","","","","","","not_uploaded_rerecorded","52T","Jupiter's mass is approximately 317 times earth's.","true","sentence_review","","1","6bqg3s4g4q_52T_audio.webm","rerecord","null"
"2075","
          <div class=""recording-instructions-box"">
            <h2>Read the sentence aloud</h2>
            <p>Take a moment to get ready. When you are ready to begin, click the button below to start recording.</p>
            <p class=""sentence-stimulus"">Jupiter's mass is approximately 317 times earth's.</p>
          </div>
        ","0","html-button-response","93","785238","0.0-24.1-0.1","6bqg3s4g4q","","","","","","","52T","Jupiter's mass is approximately 317 times earth's.","true","sentence_ready","","","","",""
"5194","
          <div class=""recording-instructions-box"">
            <h2>Recording in progress</h2>
            <p>Please read the sentence naturally, then click the button when you are done.</p>
            <p class=""sentence-stimulus"">Jupiter's mass is approximately 317 times earth's.</p>
          </div>
        ","null","html-audio-response","94","790504","0.0-24.1-1.1","6bqg3s4g4q","","","","","1","","52T","Jupiter's mass is approximately 317 times earth's.","true","sentence_recording","blob:https://charburnham.github.io/2a964a65-c756-468d-8d8c-8108cfde3966","2","6bqg3s4g4q_52T_audio.webm","",""
"802647","
            <div class=""recording-instructions-box"">
              <h2>Review your recording</h2>
              <p>Listen to your recording for this sentence. If you want, you can record it again before moving on.</p>
              <p class=""sentence-stimulus"">Jupiter's mass is approximately 317 times earth's.</p>
              <audio controls src=""blob:https://charburnham.github.io/2a964a65-c756-468d-8d8c-8108cfde3966"" class=""playback-audio""></audio>
            </div>
          ","1","html-button-response","95","1593164","0.0-24.1-2.1","6bqg3s4g4q","","","","","","queued","52T","Jupiter's mass is approximately 317 times earth's.","true","sentence_review","","2","6bqg3s4g4q_52T_audio.webm","accepted","6bqg3s4g4q_52T_audio.webm"
"7429","
          <div class=""recording-instructions-box"">
            <h2>Read the sentence aloud</h2>
            <p>Take a moment to get ready. When you are ready to begin, click the button below to start recording.</p>
            <p class=""sentence-stimulus"">A honeybee can fly at 35 mph.</p>
          </div>
        ","0","html-button-response","96","1600596","0.0-25.0-0.0","6bqg3s4g4q","","","","","","","5F","A honeybee can fly at 35 mph.","false","sentence_ready","","","","",""
"4922","
          <div class=""recording-instructions-box"">
            <h2>Recording in progress</h2>
            <p>Please read the sentence naturally, then click the button when you are done.</p>
            <p class=""sentence-stimulus"">A honeybee can fly at 35 mph.</p>
          </div>
        ","null","html-audio-response","97","1605600","0.0-25.0-1.0","6bqg3s4g4q","","","","","3","","5F","A honeybee can fly at 35 mph.","false","sentence_recording","blob:https://charburnham.github.io/561daff0-270c-4ae8-93bf-1bfb20e50b61","1","6bqg3s4g4q_5F_audio.webm","",""
"6414","
            <div class=""recording-instructions-box"">
              <h2>Review your recording</h2>
              <p>Listen to your recording for this sentence. If you want, you can record it again before moving on.</p>
              <p class=""sentence-stimulus"">A honeybee can fly at 35 mph.</p>
              <audio controls src=""blob:https://charburnham.github.io/561daff0-270c-4ae8-93bf-1bfb20e50b61"" class=""playback-audio""></audio>
            </div>
          ","1","html-button-response","98","1612016","0.0-25.0-2.0","6bqg3s4g4q","","","","","","queued","5F","A honeybee can fly at 35 mph.","false","sentence_review","","1","6bqg3s4g4q_5F_audio.webm","accepted","6bqg3s4g4q_5F_audio.webm"
"36010","
          <div class=""recording-instructions-box"">
            <h2>Read the sentence aloud</h2>
            <p>Take a moment to get ready. When you are ready to begin, click the button below to start recording.</p>
            <p class=""sentence-stimulus"">The first trains went into operation in the 1700s.</p>
          </div>
        ","0","html-button-response","99","1648029","0.0-26.0-0.0","6bqg3s4g4q","","","","","","","45T","The first trains went into operation in the 1700s.","true","sentence_ready","","","","",""
"5760","
          <div class=""recording-instructions-box"">
            <h2>Recording in progress</h2>
            <p>Please read the sentence naturally, then click the button when you are done.</p>
            <p class=""sentence-stimulus"">The first trains went into operation in the 1700s.</p>
          </div>
        ","null","html-audio-response","100","1653874","0.0-26.0-1.0","6bqg3s4g4q","","","","","3","","45T","The first trains went into operation in the 1700s.","true","sentence_recording","blob:https://charburnham.github.io/4f8b29e0-b044-4e1c-af01-472210875ccc","1","6bqg3s4g4q_45T_audio.webm","",""
"6564","
            <div class=""recording-instructions-box"">
              <h2>Review your recording</h2>
              <p>Listen to your recording for this sentence. If you want, you can record it again before moving on.</p>
              <p class=""sentence-stimulus"">The first trains went into operation in the 1700s.</p>
              <audio controls src=""blob:https://charburnham.github.io/4f8b29e0-b044-4e1c-af01-472210875ccc"" class=""playback-audio""></audio>
            </div>
          ","1","html-button-response","101","1660441","0.0-26.0-2.0","6bqg3s4g4q","","","","","","queued","45T","The first trains went into operation in the 1700s.","true","sentence_review","","1","6bqg3s4g4q_45T_audio.webm","accepted","6bqg3s4g4q_45T_audio.webm"
"3183","
          <div class=""recording-instructions-box"">
            <h2>Read the sentence aloud</h2>
            <p>Take a moment to get ready. When you are ready to begin, click the button below to start recording.</p>
            <p class=""sentence-stimulus"">Jellyfish have two hearts.</p>
          </div>
        ","0","html-button-response","102","1663627","0.0-27.0-0.0","6bqg3s4g4q","","","","","","","25F","Jellyfish have two hearts.","false","sentence_ready","","","","",""
"2758","
          <div class=""recording-instructions-box"">
            <h2>Recording in progress</h2>
            <p>Please read the sentence naturally, then click the button when you are done.</p>
            <p class=""sentence-stimulus"">Jellyfish have two hearts.</p>
          </div>
        ","null","html-audio-response","103","1666457","0.0-27.0-1.0","6bqg3s4g4q","","","","","2","","25F","Jellyfish have two hearts.","false","sentence_recording","blob:https://charburnham.github.io/d3a022ad-b52e-4c43-b0fa-3991c157be78","1","6bqg3s4g4q_25F_audio.webm","",""
"3744","
            <div class=""recording-instructions-box"">
              <h2>Review your recording</h2>
              <p>Listen to your recording for this sentence. If you want, you can record it again before moving on.</p>
              <p class=""sentence-stimulus"">Jellyfish have two hearts.</p>
              <audio controls src=""blob:https://charburnham.github.io/d3a022ad-b52e-4c43-b0fa-3991c157be78"" class=""playback-audio""></audio>
            </div>
          ","1","html-button-response","104","1670204","0.0-27.0-2.0","6bqg3s4g4q","","","","","","queued","25F","Jellyfish have two hearts.","false","sentence_review","","1","6bqg3s4g4q_25F_audio.webm","accepted","6bqg3s4g4q_25F_audio.webm"
"7481","
          <div class=""recording-instructions-box"">
            <h2>Read the sentence aloud</h2>
            <p>Take a moment to get ready. When you are ready to begin, click the button below to start recording.</p>
            <p class=""sentence-stimulus"">France has twice the land area of Colombia.</p>
          </div>
        ","0","html-button-response","105","1677688","0.0-28.0-0.0","6bqg3s4g4q","","","","","","","36F","France has twice the land area of Colombia.","false","sentence_ready","","","","",""
"4236","
          <div class=""recording-instructions-box"">
            <h2>Recording in progress</h2>
            <p>Please read the sentence naturally, then click the button when you are done.</p>
            <p class=""sentence-stimulus"">France has twice the land area of Colombia.</p>
          </div>
        ","null","html-audio-response","106","1682005","0.0-28.0-1.0","6bqg3s4g4q","","","","","2","","36F","France has twice the land area of Colombia.","false","sentence_recording","blob:https://charburnham.github.io/8c801630-00a6-4d89-b9af-ecb5572dd77a","1","6bqg3s4g4q_36F_audio.webm","",""
"1251","
            <div class=""recording-instructions-box"">
              <h2>Review your recording</h2>
              <p>Listen to your recording for this sentence. If you want, you can record it again before moving on.</p>
              <p class=""sentence-stimulus"">France has twice the land area of Colombia.</p>
              <audio controls src=""blob:https://charburnham.github.io/8c801630-00a6-4d89-b9af-ecb5572dd77a"" class=""playback-audio""></audio>
            </div>
          ","0","html-button-response","107","1683259","0.0-28.0-2.0","6bqg3s4g4q","","","","","","not_uploaded_rerecorded","36F","France has twice the land area of Colombia.","false","sentence_review","","1","6bqg3s4g4q_36F_audio.webm","rerecord","null"
"912","
          <div class=""recording-instructions-box"">
            <h2>Read the sentence aloud</h2>
            <p>Take a moment to get ready. When you are ready to begin, click the button below to start recording.</p>
            <p class=""sentence-stimulus"">France has twice the land area of Colombia.</p>
          </div>
        ","0","html-button-response","108","1684172","0.0-28.1-0.1","6bqg3s4g4q","","","","","","","36F","France has twice the land area of Colombia.","false","sentence_ready","","","","",""
"4027","
          <div class=""recording-instructions-box"">
            <h2>Recording in progress</h2>
            <p>Please read the sentence naturally, then click the button when you are done.</p>
            <p class=""sentence-stimulus"">France has twice the land area of Colombia.</p>
          </div>
        ","null","html-audio-response","109","1688276","0.0-28.1-1.1","6bqg3s4g4q","","","","","2","","36F","France has twice the land area of Colombia.","false","sentence_recording","blob:https://charburnham.github.io/46cc6d44-1b8f-4e38-863d-cb48033548cb","2","6bqg3s4g4q_36F_audio.webm","",""
"5410","
            <div class=""recording-instructions-box"">
              <h2>Review your recording</h2>
              <p>Listen to your recording for this sentence. If you want, you can record it again before moving on.</p>
              <p class=""sentence-stimulus"">France has twice the land area of Colombia.</p>
              <audio controls src=""blob:https://charburnham.github.io/46cc6d44-1b8f-4e38-863d-cb48033548cb"" class=""playback-audio""></audio>
            </div>
          ","1","html-button-response","110","1693688","0.0-28.1-2.1","6bqg3s4g4q","","","","","","queued","36F","France has twice the land area of Colombia.","false","sentence_review","","2","6bqg3s4g4q_36F_audio.webm","accepted","6bqg3s4g4q_36F_audio.webm"
"29693","
          <div class=""recording-instructions-box"">
            <h2>Read the sentence aloud</h2>
            <p>Take a moment to get ready. When you are ready to begin, click the button below to start recording.</p>
            <p class=""sentence-stimulus"">The average ruby-throated hummingbird weighs less than a nickel.</p>
          </div>
        ","0","html-button-response","111","1723385","0.0-29.0-0.0","6bqg3s4g4q","","","","","","","8T","The average ruby-throated hummingbird weighs less than a nickel.","true","sentence_ready","","","","",""
"5788","
          <div class=""recording-instructions-box"">
            <h2>Recording in progress</h2>
            <p>Please read the sentence naturally, then click the button when you are done.</p>
            <p class=""sentence-stimulus"">The average ruby-throated hummingbird weighs less than a nickel.</p>
          </div>
        ","null","html-audio-response","112","1729253","0.0-29.0-1.0","6bqg3s4g4q","","","","","2","","8T","The average ruby-throated hummingbird weighs less than a nickel.","true","sentence_recording","blob:https://charburnham.github.io/4c79bf23-d4f1-4572-87f0-957728f5cd8f","1","6bqg3s4g4q_8T_audio.webm","",""
"6840","
            <div class=""recording-instructions-box"">
              <h2>Review your recording</h2>
              <p>Listen to your recording for this sentence. If you want, you can record it again before moving on.</p>
              <p class=""sentence-stimulus"">The average ruby-throated hummingbird weighs less than a nickel.</p>
              <audio controls src=""blob:https://charburnham.github.io/4c79bf23-d4f1-4572-87f0-957728f5cd8f"" class=""playback-audio""></audio>
            </div>
          ","1","html-button-response","113","1736095","0.0-29.0-2.0","6bqg3s4g4q","","","","","","queued","8T","The average ruby-throated hummingbird weighs less than a nickel.","true","sentence_review","","1","6bqg3s4g4q_8T_audio.webm","accepted","6bqg3s4g4q_8T_audio.webm"
"7600","
          <div class=""recording-instructions-box"">
            <h2>Read the sentence aloud</h2>
            <p>Take a moment to get ready. When you are ready to begin, click the button below to start recording.</p>
            <p class=""sentence-stimulus"">A ball of rubber will bounce higher than a ball of glass.</p>
          </div>
        ","0","html-button-response","114","1743699","0.0-30.0-0.0","6bqg3s4g4q","","","","","","","F2F","A ball of rubber will bounce higher than a ball of glass.","false","sentence_ready","","","","",""
"4772","
          <div class=""recording-instructions-box"">
            <h2>Recording in progress</h2>
            <p>Please read the sentence naturally, then click the button when you are done.</p>
            <p class=""sentence-stimulus"">A ball of rubber will bounce higher than a ball of glass.</p>
          </div>
        ","null","html-audio-response","115","1748549","0.0-30.0-1.0","6bqg3s4g4q","","","","","3","","F2F","A ball of rubber will bounce higher than a ball of glass.","false","sentence_recording","blob:https://charburnham.github.io/f45433b3-3557-4650-b41e-5b82913877d5","1","6bqg3s4g4q_F2F_audio.webm","",""
"5617","
            <div class=""recording-instructions-box"">
              <h2>Review your recording</h2>
              <p>Listen to your recording for this sentence. If you want, you can record it again before moving on.</p>
              <p class=""sentence-stimulus"">A ball of rubber will bounce higher than a ball of glass.</p>
              <audio controls src=""blob:https://charburnham.github.io/f45433b3-3557-4650-b41e-5b82913877d5"" class=""playback-audio""></audio>
            </div>
          ","1","html-button-response","116","1754168","0.0-30.0-2.0","6bqg3s4g4q","","","","","","queued","F2F","A ball of rubber will bounce higher than a ball of glass.","false","sentence_review","","1","6bqg3s4g4q_F2F_audio.webm","accepted","6bqg3s4g4q_F2F_audio.webm"
"56947","
          <div class=""recording-instructions-box"">
            <h2>Read the sentence aloud</h2>
            <p>Take a moment to get ready. When you are ready to begin, click the button below to start recording.</p>
            <p class=""sentence-stimulus"">An ostrich's eye is half the size of its brain.</p>
          </div>
        ","0","html-button-response","117","1811119","0.0-31.0-0.0","6bqg3s4g4q","","","","","","","38F","An ostrich's eye is half the size of its brain.","false","sentence_ready","","","","",""
"4685","
          <div class=""recording-instructions-box"">
            <h2>Recording in progress</h2>
            <p>Please read the sentence naturally, then click the button when you are done.</p>
            <p class=""sentence-stimulus"">An ostrich's eye is half the size of its brain.</p>
          </div>
        ","null","html-audio-response","118","1815889","0.0-31.0-1.0","6bqg3s4g4q","","","","","3","","38F","An ostrich's eye is half the size of its brain.","false","sentence_recording","blob:https://charburnham.github.io/36b0b74e-0fd9-4f5f-9b16-0f360cd4b399","1","6bqg3s4g4q_38F_audio.webm","",""
"1035","
            <div class=""recording-instructions-box"">
              <h2>Review your recording</h2>
              <p>Listen to your recording for this sentence. If you want, you can record it again before moving on.</p>
              <p class=""sentence-stimulus"">An ostrich's eye is half the size of its brain.</p>
              <audio controls src=""blob:https://charburnham.github.io/36b0b74e-0fd9-4f5f-9b16-0f360cd4b399"" class=""playback-audio""></audio>
            </div>
          ","0","html-button-response","119","1816927","0.0-31.0-2.0","6bqg3s4g4q","","","","","","not_uploaded_rerecorded","38F","An ostrich's eye is half the size of its brain.","false","sentence_review","","1","6bqg3s4g4q_38F_audio.webm","rerecord","null"
"935","
          <div class=""recording-instructions-box"">
            <h2>Read the sentence aloud</h2>
            <p>Take a moment to get ready. When you are ready to begin, click the button below to start recording.</p>
            <p class=""sentence-stimulus"">An ostrich's eye is half the size of its brain.</p>
          </div>
        ","0","html-button-response","120","1817863","0.0-31.1-0.1","6bqg3s4g4q","","","","","","","38F","An ostrich's eye is half the size of its brain.","false","sentence_ready","","","","",""
"1783","
          <div class=""recording-instructions-box"">
            <h2>Recording in progress</h2>
            <p>Please read the sentence naturally, then click the button when you are done.</p>
            <p class=""sentence-stimulus"">An ostrich's eye is half the size of its brain.</p>
          </div>
        ","null","html-audio-response","121","1819723","0.0-31.1-1.1","6bqg3s4g4q","","","","","3","","38F","An ostrich's eye is half the size of its brain.","false","sentence_recording","blob:https://charburnham.github.io/e6948017-34c9-4729-9d0f-c46fa540bda6","2","6bqg3s4g4q_38F_audio.webm","",""
"1236","
            <div class=""recording-instructions-box"">
              <h2>Review your recording</h2>
              <p>Listen to your recording for this sentence. If you want, you can record it again before moving on.</p>
              <p class=""sentence-stimulus"">An ostrich's eye is half the size of its brain.</p>
              <audio controls src=""blob:https://charburnham.github.io/e6948017-34c9-4729-9d0f-c46fa540bda6"" class=""playback-audio""></audio>
            </div>
          ","0","html-button-response","122","1820961","0.0-31.1-2.1","6bqg3s4g4q","","","","","","not_uploaded_rerecorded","38F","An ostrich's eye is half the size of its brain.","false","sentence_review","","2","6bqg3s4g4q_38F_audio.webm","rerecord","null"
"1123","
          <div class=""recording-instructions-box"">
            <h2>Read the sentence aloud</h2>
            <p>Take a moment to get ready. When you are ready to begin, click the button below to start recording.</p>
            <p class=""sentence-stimulus"">An ostrich's eye is half the size of its brain.</p>
          </div>
        ","0","html-button-response","123","1822086","0.0-31.2-0.2","6bqg3s4g4q","","","","","","","38F","An ostrich's eye is half the size of its brain.","false","sentence_ready","","","","",""
"4461","
          <div class=""recording-instructions-box"">
            <h2>Recording in progress</h2>
            <p>Please read the sentence naturally, then click the button when you are done.</p>
            <p class=""sentence-stimulus"">An ostrich's eye is half the size of its brain.</p>
          </div>
        ","null","html-audio-response","124","1826636","0.0-31.2-1.2","6bqg3s4g4q","","","","","3","","38F","An ostrich's eye is half the size of its brain.","false","sentence_recording","blob:https://charburnham.github.io/b5f7c6a4-f261-4a3d-9df7-bf0e4cf33794","3","6bqg3s4g4q_38F_audio.webm","",""
"5409","
            <div class=""recording-instructions-box"">
              <h2>Review your recording</h2>
              <p>Listen to your recording for this sentence. If you want, you can record it again before moving on.</p>
              <p class=""sentence-stimulus"">An ostrich's eye is half the size of its brain.</p>
              <audio controls src=""blob:https://charburnham.github.io/b5f7c6a4-f261-4a3d-9df7-bf0e4cf33794"" class=""playback-audio""></audio>
            </div>
          ","1","html-button-response","125","1832048","0.0-31.2-2.2","6bqg3s4g4q","","","","","","queued","38F","An ostrich's eye is half the size of its brain.","false","sentence_review","","3","6bqg3s4g4q_38F_audio.webm","accepted","6bqg3s4g4q_38F_audio.webm"
"13379","
          <div class=""recording-instructions-box"">
            <h2>Read the sentence aloud</h2>
            <p>Take a moment to get ready. When you are ready to begin, click the button below to start recording.</p>
            <p class=""sentence-stimulus"">Harrisburg, Pennsylvania is the only U.S. state capital without a McDonalds.</p>
          </div>
        ","0","html-button-response","126","1845430","0.0-32.0-0.0","6bqg3s4g4q","","","","","","","29F","Harrisburg, Pennsylvania is the only U.S. state capital without a McDonalds.","false","sentence_ready","","","","",""
"6636","
          <div class=""recording-instructions-box"">
            <h2>Recording in progress</h2>
            <p>Please read the sentence naturally, then click the button when you are done.</p>
            <p class=""sentence-stimulus"">Harrisburg, Pennsylvania is the only U.S. state capital without a McDonalds.</p>
          </div>
        ","null","html-audio-response","127","1852143","0.0-32.0-1.0","6bqg3s4g4q","","","","","2","","29F","Harrisburg, Pennsylvania is the only U.S. state capital without a McDonalds.","false","sentence_recording","blob:https://charburnham.github.io/aac74aad-c8ff-4ecd-9f63-ab2955a26728","1","6bqg3s4g4q_29F_audio.webm","",""
"7961","
            <div class=""recording-instructions-box"">
              <h2>Review your recording</h2>
              <p>Listen to your recording for this sentence. If you want, you can record it again before moving on.</p>
              <p class=""sentence-stimulus"">Harrisburg, Pennsylvania is the only U.S. state capital without a McDonalds.</p>
              <audio controls src=""blob:https://charburnham.github.io/aac74aad-c8ff-4ecd-9f63-ab2955a26728"" class=""playback-audio""></audio>
            </div>
          ","1","html-button-response","128","1860106","0.0-32.0-2.0","6bqg3s4g4q","","","","","","queued","29F","Harrisburg, Pennsylvania is the only U.S. state capital without a McDonalds.","false","sentence_review","","1","6bqg3s4g4q_29F_audio.webm","accepted","6bqg3s4g4q_29F_audio.webm"
"6173","
          <div class=""recording-instructions-box"">
            <h2>Read the sentence aloud</h2>
            <p>Take a moment to get ready. When you are ready to begin, click the button below to start recording.</p>
            <p class=""sentence-stimulus"">Tennis was invented before golf.</p>
          </div>
        ","0","html-button-response","129","1866283","0.0-33.0-0.0","6bqg3s4g4q","","","","","","","27T","Tennis was invented before golf.","true","sentence_ready","","","","",""
"3044","
          <div class=""recording-instructions-box"">
            <h2>Recording in progress</h2>
            <p>Please read the sentence naturally, then click the button when you are done.</p>
            <p class=""sentence-stimulus"">Tennis was invented before golf.</p>
          </div>
        ","null","html-audio-response","130","1869400","0.0-33.0-1.0","6bqg3s4g4q","","","","","3","","27T","Tennis was invented before golf.","true","sentence_recording","blob:https://charburnham.github.io/c5bccfab-8784-4b4b-a618-41f5460d73fb","1","6bqg3s4g4q_27T_audio.webm","",""
"4043","
            <div class=""recording-instructions-box"">
              <h2>Review your recording</h2>
              <p>Listen to your recording for this sentence. If you want, you can record it again before moving on.</p>
              <p class=""sentence-stimulus"">Tennis was invented before golf.</p>
              <audio controls src=""blob:https://charburnham.github.io/c5bccfab-8784-4b4b-a618-41f5460d73fb"" class=""playback-audio""></audio>
            </div>
          ","1","html-button-response","131","1873446","0.0-33.0-2.0","6bqg3s4g4q","","","","","","queued","27T","Tennis was invented before golf.","true","sentence_review","","1","6bqg3s4g4q_27T_audio.webm","accepted","6bqg3s4g4q_27T_audio.webm"
"120674","
          <div class=""recording-instructions-box"">
            <h2>Read the sentence aloud</h2>
            <p>Take a moment to get ready. When you are ready to begin, click the button below to start recording.</p>
            <p class=""sentence-stimulus"">Germany was the first country to use a submarine in warfare.</p>
          </div>
        ","0","html-button-response","132","1994068","0.0-34.0-0.0","6bqg3s4g4q","","","","","","","49F","Germany was the first country to use a submarine in warfare.","false","sentence_ready","","","","",""
"5509","
          <div class=""recording-instructions-box"">
            <h2>Recording in progress</h2>
            <p>Please read the sentence naturally, then click the button when you are done.</p>
            <p class=""sentence-stimulus"">Germany was the first country to use a submarine in warfare.</p>
          </div>
        ","null","html-audio-response","133","1999655","0.0-34.0-1.0","6bqg3s4g4q","","","","","3","","49F","Germany was the first country to use a submarine in warfare.","false","sentence_recording","blob:https://charburnham.github.io/89f69409-2d52-4959-a37e-2c7fbc76a60f","1","6bqg3s4g4q_49F_audio.webm","",""
"10443","
            <div class=""recording-instructions-box"">
              <h2>Review your recording</h2>
              <p>Listen to your recording for this sentence. If you want, you can record it again before moving on.</p>
              <p class=""sentence-stimulus"">Germany was the first country to use a submarine in warfare.</p>
              <audio controls src=""blob:https://charburnham.github.io/89f69409-2d52-4959-a37e-2c7fbc76a60f"" class=""playback-audio""></audio>
            </div>
          ","1","html-button-response","134","2010100","0.0-34.0-2.0","6bqg3s4g4q","","","","","","queued","49F","Germany was the first country to use a submarine in warfare.","false","sentence_review","","1","6bqg3s4g4q_49F_audio.webm","accepted","6bqg3s4g4q_49F_audio.webm"
"5485","
          <div class=""recording-instructions-box"">
            <h2>Read the sentence aloud</h2>
            <p>Take a moment to get ready. When you are ready to begin, click the button below to start recording.</p>
            <p class=""sentence-stimulus"">English is the official language of the United States.</p>
          </div>
        ","0","html-button-response","135","2015589","0.0-35.0-0.0","6bqg3s4g4q","","","","","","","37F","English is the official language of the United States.","false","sentence_ready","","","","",""
"4569","
          <div class=""recording-instructions-box"">
            <h2>Recording in progress</h2>
            <p>Please read the sentence naturally, then click the button when you are done.</p>
            <p class=""sentence-stimulus"">English is the official language of the United States.</p>
          </div>
        ","null","html-audio-response","136","2020227","0.0-35.0-1.0","6bqg3s4g4q","","","","","2","","37F","English is the official language of the United States.","false","sentence_recording","blob:https://charburnham.github.io/4ca60aac-f952-4d9f-9fb6-54e856825aa9","1","6bqg3s4g4q_37F_audio.webm","",""
"5874","
            <div class=""recording-instructions-box"">
              <h2>Review your recording</h2>
              <p>Listen to your recording for this sentence. If you want, you can record it again before moving on.</p>
              <p class=""sentence-stimulus"">English is the official language of the United States.</p>
              <audio controls src=""blob:https://charburnham.github.io/4ca60aac-f952-4d9f-9fb6-54e856825aa9"" class=""playback-audio""></audio>
            </div>
          ","1","html-button-response","137","2026103","0.0-35.0-2.0","6bqg3s4g4q","","","","","","queued","37F","English is the official language of the United States.","false","sentence_review","","1","6bqg3s4g4q_37F_audio.webm","accepted","6bqg3s4g4q_37F_audio.webm"
"6814","
          <div class=""recording-instructions-box"">
            <h2>Read the sentence aloud</h2>
            <p>Take a moment to get ready. When you are ready to begin, click the button below to start recording.</p>
            <p class=""sentence-stimulus"">In colonial times, only slaves ate lobster.</p>
          </div>
        ","0","html-button-response","138","2032921","0.0-36.0-0.0","6bqg3s4g4q","","","","","","","F11T","In colonial times, only slaves ate lobster.","true","sentence_ready","","","","",""
"4139","
          <div class=""recording-instructions-box"">
            <h2>Recording in progress</h2>
            <p>Please read the sentence naturally, then click the button when you are done.</p>
            <p class=""sentence-stimulus"">In colonial times, only slaves ate lobster.</p>
          </div>
        ","null","html-audio-response","139","2037141","0.0-36.0-1.0","6bqg3s4g4q","","","","","3","","F11T","In colonial times, only slaves ate lobster.","true","sentence_recording","blob:https://charburnham.github.io/81f632e0-2495-4064-83a5-0d1b663b8318","1","6bqg3s4g4q_F11T_audio.webm","",""
"5172","
            <div class=""recording-instructions-box"">
              <h2>Review your recording</h2>
              <p>Listen to your recording for this sentence. If you want, you can record it again before moving on.</p>
              <p class=""sentence-stimulus"">In colonial times, only slaves ate lobster.</p>
              <audio controls src=""blob:https://charburnham.github.io/81f632e0-2495-4064-83a5-0d1b663b8318"" class=""playback-audio""></audio>
            </div>
          ","1","html-button-response","140","2042317","0.0-36.0-2.0","6bqg3s4g4q","","","","","","queued","F11T","In colonial times, only slaves ate lobster.","true","sentence_review","","1","6bqg3s4g4q_F11T_audio.webm","accepted","6bqg3s4g4q_F11T_audio.webm"
"17114","
          <div class=""recording-instructions-box"">
            <h2>Read the sentence aloud</h2>
            <p>Take a moment to get ready. When you are ready to begin, click the button below to start recording.</p>
            <p class=""sentence-stimulus"">Louisiana was named after Louis 14th.</p>
          </div>
        ","0","html-button-response","141","2059434","0.0-37.0-0.0","6bqg3s4g4q","","","","","","","17T","Louisiana was named after Louis 14th.","true","sentence_ready","","","","",""
"4669","
          <div class=""recording-instructions-box"">
            <h2>Recording in progress</h2>
            <p>Please read the sentence naturally, then click the button when you are done.</p>
            <p class=""sentence-stimulus"">Louisiana was named after Louis 14th.</p>
          </div>
        ","null","html-audio-response","142","2064185","0.0-37.0-1.0","6bqg3s4g4q","","","","","3","","17T","Louisiana was named after Louis 14th.","true","sentence_recording","blob:https://charburnham.github.io/5cb5017f-3b36-45fb-8cf6-8364e39fc8d0","1","6bqg3s4g4q_17T_audio.webm","",""
"5544","
            <div class=""recording-instructions-box"">
              <h2>Review your recording</h2>
              <p>Listen to your recording for this sentence. If you want, you can record it again before moving on.</p>
              <p class=""sentence-stimulus"">Louisiana was named after Louis 14th.</p>
              <audio controls src=""blob:https://charburnham.github.io/5cb5017f-3b36-45fb-8cf6-8364e39fc8d0"" class=""playback-audio""></audio>
            </div>
          ","1","html-button-response","143","2069732","0.0-37.0-2.0","6bqg3s4g4q","","","","","","queued","17T","Louisiana was named after Louis 14th.","true","sentence_review","","1","6bqg3s4g4q_17T_audio.webm","accepted","6bqg3s4g4q_17T_audio.webm"
"7826","
          <div class=""recording-instructions-box"">
            <h2>Read the sentence aloud</h2>
            <p>Take a moment to get ready. When you are ready to begin, click the button below to start recording.</p>
            <p class=""sentence-stimulus"">Taiwan is the only country whose national flag is not rectangular.</p>
          </div>
        ","0","html-button-response","144","2077561","0.0-38.0-0.0","6bqg3s4g4q","","","","","","","35F","Taiwan is the only country whose national flag is not rectangular.","false","sentence_ready","","","","",""
"5091","
          <div class=""recording-instructions-box"">
            <h2>Recording in progress</h2>
            <p>Please read the sentence naturally, then click the button when you are done.</p>
            <p class=""sentence-stimulus"">Taiwan is the only country whose national flag is not rectangular.</p>
          </div>
        ","null","html-audio-response","145","2082735","0.0-38.0-1.0","6bqg3s4g4q","","","","","3","","35F","Taiwan is the only country whose national flag is not rectangular.","false","sentence_recording","blob:https://charburnham.github.io/74d13eae-a7b1-4c14-9419-66586302e90b","1","6bqg3s4g4q_35F_audio.webm","",""
"10730","
            <div class=""recording-instructions-box"">
              <h2>Review your recording</h2>
              <p>Listen to your recording for this sentence. If you want, you can record it again before moving on.</p>
              <p class=""sentence-stimulus"">Taiwan is the only country whose national flag is not rectangular.</p>
              <audio controls src=""blob:https://charburnham.github.io/74d13eae-a7b1-4c14-9419-66586302e90b"" class=""playback-audio""></audio>
            </div>
          ","1","html-button-response","146","2093467","0.0-38.0-2.0","6bqg3s4g4q","","","","","","queued","35F","Taiwan is the only country whose national flag is not rectangular.","false","sentence_review","","1","6bqg3s4g4q_35F_audio.webm","accepted","6bqg3s4g4q_35F_audio.webm"
"13665","
          <div class=""recording-instructions-box"">
            <h2>Read the sentence aloud</h2>
            <p>Take a moment to get ready. When you are ready to begin, click the button below to start recording.</p>
            <p class=""sentence-stimulus"">Oregon's state birthday is on Valentine's Day.</p>
          </div>
        ","0","html-button-response","147","2107137","0.0-39.0-0.0","6bqg3s4g4q","","","","","","","31T","Oregon's state birthday is on Valentine's Day.","true","sentence_ready","","","","",""
"3740","
          <div class=""recording-instructions-box"">
            <h2>Recording in progress</h2>
            <p>Please read the sentence naturally, then click the button when you are done.</p>
            <p class=""sentence-stimulus"">Oregon's state birthday is on Valentine's Day.</p>
          </div>
        ","null","html-audio-response","148","2110956","0.0-39.0-1.0","6bqg3s4g4q","","","","","1","","31T","Oregon's state birthday is on Valentine's Day.","true","sentence_recording","blob:https://charburnham.github.io/bc7ba412-17a8-4e49-acb4-454a7957eeb9","1","6bqg3s4g4q_31T_audio.webm","",""
"4726","
            <div class=""recording-instructions-box"">
              <h2>Review your recording</h2>
              <p>Listen to your recording for this sentence. If you want, you can record it again before moving on.</p>
              <p class=""sentence-stimulus"">Oregon's state birthday is on Valentine's Day.</p>
              <audio controls src=""blob:https://charburnham.github.io/bc7ba412-17a8-4e49-acb4-454a7957eeb9"" class=""playback-audio""></audio>
            </div>
          ","1","html-button-response","149","2115684","0.0-39.0-2.0","6bqg3s4g4q","","","","","","queued","31T","Oregon's state birthday is on Valentine's Day.","true","sentence_review","","1","6bqg3s4g4q_31T_audio.webm","accepted","6bqg3s4g4q_31T_audio.webm"
"16266","
          <div class=""recording-instructions-box"">
            <h2>Read the sentence aloud</h2>
            <p>Take a moment to get ready. When you are ready to begin, click the button below to start recording.</p>
            <p class=""sentence-stimulus"">Chameleons' tongues can stretch to four times their body length.</p>
          </div>
        ","0","html-button-response","150","2131954","0.0-40.0-0.0","6bqg3s4g4q","","","","","","","42F","Chameleons' tongues can stretch to four times their body length.","false","sentence_ready","","","","",""
"5275","
          <div class=""recording-instructions-box"">
            <h2>Recording in progress</h2>
            <p>Please read the sentence naturally, then click the button when you are done.</p>
            <p class=""sentence-stimulus"">Chameleons' tongues can stretch to four times their body length.</p>
          </div>
        ","null","html-audio-response","151","2137314","0.0-40.0-1.0","6bqg3s4g4q","","","","","3","","42F","Chameleons' tongues can stretch to four times their body length.","false","sentence_recording","blob:https://charburnham.github.io/fad5f5f3-cb3f-41a0-a1bf-00a01d5ccbbc","1","6bqg3s4g4q_42F_audio.webm","",""
"6322","
            <div class=""recording-instructions-box"">
              <h2>Review your recording</h2>
              <p>Listen to your recording for this sentence. If you want, you can record it again before moving on.</p>
              <p class=""sentence-stimulus"">Chameleons' tongues can stretch to four times their body length.</p>
              <audio controls src=""blob:https://charburnham.github.io/fad5f5f3-cb3f-41a0-a1bf-00a01d5ccbbc"" class=""playback-audio""></audio>
            </div>
          ","1","html-button-response","152","2143638","0.0-40.0-2.0","6bqg3s4g4q","","","","","","queued","42F","Chameleons' tongues can stretch to four times their body length.","false","sentence_review","","1","6bqg3s4g4q_42F_audio.webm","accepted","6bqg3s4g4q_42F_audio.webm"
"5125","
          <div class=""recording-instructions-box"">
            <h2>Read the sentence aloud</h2>
            <p>Take a moment to get ready. When you are ready to begin, click the button below to start recording.</p>
            <p class=""sentence-stimulus"">Fourteen U.S. presidents have been only children.</p>
          </div>
        ","0","html-button-response","153","2148767","0.0-41.0-0.0","6bqg3s4g4q","","","","","","","10F","Fourteen U.S. presidents have been only children.","false","sentence_ready","","","","",""
"3780","
          <div class=""recording-instructions-box"">
            <h2>Recording in progress</h2>
            <p>Please read the sentence naturally, then click the button when you are done.</p>
            <p class=""sentence-stimulus"">Fourteen U.S. presidents have been only children.</p>
          </div>
        ","null","html-audio-response","154","2152633","0.0-41.0-1.0","6bqg3s4g4q","","","","","3","","10F","Fourteen U.S. presidents have been only children.","false","sentence_recording","blob:https://charburnham.github.io/a1fd8f86-e2c8-4069-a26d-d26fa067053f","1","6bqg3s4g4q_10F_audio.webm","",""
"876","
            <div class=""recording-instructions-box"">
              <h2>Review your recording</h2>
              <p>Listen to your recording for this sentence. If you want, you can record it again before moving on.</p>
              <p class=""sentence-stimulus"">Fourteen U.S. presidents have been only children.</p>
              <audio controls src=""blob:https://charburnham.github.io/a1fd8f86-e2c8-4069-a26d-d26fa067053f"" class=""playback-audio""></audio>
            </div>
          ","0","html-button-response","155","2153512","0.0-41.0-2.0","6bqg3s4g4q","","","","","","not_uploaded_rerecorded","10F","Fourteen U.S. presidents have been only children.","false","sentence_review","","1","6bqg3s4g4q_10F_audio.webm","rerecord","null"
"1280","
          <div class=""recording-instructions-box"">
            <h2>Read the sentence aloud</h2>
            <p>Take a moment to get ready. When you are ready to begin, click the button below to start recording.</p>
            <p class=""sentence-stimulus"">Fourteen U.S. presidents have been only children.</p>
          </div>
        ","0","html-button-response","156","2154794","0.0-41.1-0.1","6bqg3s4g4q","","","","","","","10F","Fourteen U.S. presidents have been only children.","false","sentence_ready","","","","",""
"3604","
          <div class=""recording-instructions-box"">
            <h2>Recording in progress</h2>
            <p>Please read the sentence naturally, then click the button when you are done.</p>
            <p class=""sentence-stimulus"">Fourteen U.S. presidents have been only children.</p>
          </div>
        ","null","html-audio-response","157","2158477","0.0-41.1-1.1","6bqg3s4g4q","","","","","2","","10F","Fourteen U.S. presidents have been only children.","false","sentence_recording","blob:https://charburnham.github.io/f342d472-6c44-43d9-9090-75e5c0ea40cf","2","6bqg3s4g4q_10F_audio.webm","",""
"43927","
            <div class=""recording-instructions-box"">
              <h2>Review your recording</h2>
              <p>Listen to your recording for this sentence. If you want, you can record it again before moving on.</p>
              <p class=""sentence-stimulus"">Fourteen U.S. presidents have been only children.</p>
              <audio controls src=""blob:https://charburnham.github.io/f342d472-6c44-43d9-9090-75e5c0ea40cf"" class=""playback-audio""></audio>
            </div>
          ","1","html-button-response","158","2202407","0.0-41.1-2.1","6bqg3s4g4q","","","","","","queued","10F","Fourteen U.S. presidents have been only children.","false","sentence_review","","2","6bqg3s4g4q_10F_audio.webm","accepted","6bqg3s4g4q_10F_audio.webm"
"6737","
          <div class=""recording-instructions-box"">
            <h2>Read the sentence aloud</h2>
            <p>Take a moment to get ready. When you are ready to begin, click the button below to start recording.</p>
