"rt","stimulus","response","trial_type","trial_index","time_elapsed","internal_node_id","subject_id","microphone_confirmed","device_id","view_history","trial_type_label","estimated_stimulus_onset","audio_upload","stimulus_code","sentence","condition","trial_stage","audio_url","recording_attempt","recording_filename","review_decision","saved_audio_file"
"1664","
    <div class=""consent"">
      <h2>Consent Form</h2>
      <p>If you agree to participate in this research, please click ""Continue"".</p>
    </div>
  ","0","html-button-response","0","1665","0.0-0.0","ha77v84840","","","","","","","","","","","","","","",""
"727","
    <div class=""instructions"">
      <h2>Instructions</h2>
      <p>In this experiment, you will see a sentence on the screen.</p>
      <p>Your task is to record yourself reading that sentence aloud using your microphone.</p>
      <p>For each sentence, you'll click <strong>Start Recording</strong> when you're ready, rather than having the recording begin right away.</p>
      <p>After each recording, you can listen back and either continue to the next sentence or re-record.</p>
      <p>Click ""Next"" to continue to the microphone test.</p>
    </div>
  ","0","html-button-response","1","2393","0.0-1.0","ha77v84840","","","","","","","","","","","","","","",""
"","","","html-keyboard-response","2","3953","0.0-2.0","ha77v84840","yes","","","","","","","","","","","","","",""
"687","
    <div class=""content"">
      <h2>Microphone Setup</h2>
      <div class=""instruction-box"">
        <p>Before starting the experiment, we need to set up your microphone.</p>
        <p>On the next page:</p>
        <ul>
          <li>Your browser will ask for microphone permission - please click <strong>Allow</strong></li>
          <li>You'll see a dropdown menu with available microphones</li>
          <li>Select the microphone you want to use</li>
          <li>Click ""Use this microphone"" to continue</li>
        </ul>
      </div>
    </div>
  ","0","html-button-response","3","4641","0.0-3.0","ha77v84840","","","","","","","","","","","","","","",""
"","","","initialize-microphone","4","6834","0.0-4.0","ha77v84840","","be6f40006a27baa92da3d250a9ff96e9d35f75f1de6b513e47ad5d8f5a3f8bf3","","","","","","","","","","","","",""
"1390","","","instructions","5","8225","0.0-5.0","ha77v84840","","","[{""page_index"":0,""viewing_time"":1390}]","","","","","","","","","","","",""
"1119","
        <div class=""content"">
          <div class=""recording-box"">
            <h3>Microphone Test</h3>
            <p>Take a moment to get ready.</p>
            <p>Click the button below when you want to begin the test recording.</p>
          </div>
        </div>
      ","0","html-button-response","6","9345","0.0-6.0","ha77v84840","","","","microphone_test_ready","","","","","","","","","","",""
"3886","
          <div class=""content"">
          <div class=""recording-box"">
          <h3>Recording in Progress...</h3>
          <p>Speak naturally, for example: <em>""Testing, 1, 2, 3.""</em></p>
      </div>
    ","ha77v84840_microphone_test_audio.webm","html-audio-response","7","20066","0.0-7.0","ha77v84840","","","","microphone_test","2","queued","","","","","","","","",""
"13356","
    <div class=""content"">
      <div class=""begin-box"">
        <h2>Let's Begin!</h2>
        <p>Now the microphone test is done and the main part begins.</p>
        <p>Each sentence will appear first, and you'll click <strong>Start Recording</strong> when you're ready to speak.</p>
        <p>After each sentence, you'll be able to listen to your recording and decide whether to keep it or record again.</p>
        <p>Click ""Continue"" to start recording the sentences.</p>
      </div>
    </div>
  ","0","html-button-response","8","33424","0.0-8.0","ha77v84840","","","","","","","","","","","","","","",""
"7400","
          <div class=""recording-instructions-box"">
            <h2>Read the sentence aloud</h2>
            <p>Take a moment to get ready. When you are ready to begin, click the button below to start recording.</p>
            <p class=""sentence-stimulus"">Texas is the only state that permits residents to cast absentee ballots from space.</p>
          </div>
        ","0","html-button-response","9","40824","0.0-9.0-0.0","ha77v84840","","","","","","","14T","Texas is the only state that permits residents to cast absentee ballots from space.","true","sentence_ready","","","","",""
"8057","
          <div class=""recording-instructions-box"">
            <h2>Recording in progress</h2>
            <p>Please read the sentence naturally, then click the button when you are done.</p>
            <p class=""sentence-stimulus"">Texas is the only state that permits residents to cast absentee ballots from space.</p>
          </div>
        ","null","html-audio-response","10","48938","0.0-9.0-1.0","ha77v84840","","","","","1","","14T","Texas is the only state that permits residents to cast absentee ballots from space.","true","sentence_recording","blob:https://charburnham.github.io/4d302693-864b-4509-ba29-7004446219e7","1","ha77v84840_14T_audio.webm","",""
"2005","
            <div class=""recording-instructions-box"">
              <h2>Review your recording</h2>
              <p>Listen to your recording for this sentence. If you want, you can record it again before moving on.</p>
              <p class=""sentence-stimulus"">Texas is the only state that permits residents to cast absentee ballots from space.</p>
              <audio controls src=""blob:https://charburnham.github.io/4d302693-864b-4509-ba29-7004446219e7"" class=""playback-audio""></audio>
            </div>
          ","1","html-button-response","11","50944","0.0-9.0-2.0","ha77v84840","","","","","","queued","14T","Texas is the only state that permits residents to cast absentee ballots from space.","true","sentence_review","","1","ha77v84840_14T_audio.webm","accepted","ha77v84840_14T_audio.webm"
"1982","
          <div class=""recording-instructions-box"">
            <h2>Read the sentence aloud</h2>
            <p>Take a moment to get ready. When you are ready to begin, click the button below to start recording.</p>
            <p class=""sentence-stimulus"">Roughly 7% of the world's water is fresh water.</p>
          </div>
        ","0","html-button-response","12","52928","0.0-10.0-0.0","ha77v84840","","","","","","","46F","Roughly 7% of the world's water is fresh water.","false","sentence_ready","","","","",""
"4643","
          <div class=""recording-instructions-box"">
            <h2>Recording in progress</h2>
            <p>Please read the sentence naturally, then click the button when you are done.</p>
            <p class=""sentence-stimulus"">Roughly 7% of the world's water is fresh water.</p>
          </div>
        ","null","html-audio-response","13","57633","0.0-10.0-1.0","ha77v84840","","","","","1","","46F","Roughly 7% of the world's water is fresh water.","false","sentence_recording","blob:https://charburnham.github.io/737d74b9-24c2-43d2-8891-b78b6397e11d","1","ha77v84840_46F_audio.webm","",""
"830","
            <div class=""recording-instructions-box"">
              <h2>Review your recording</h2>
              <p>Listen to your recording for this sentence. If you want, you can record it again before moving on.</p>
              <p class=""sentence-stimulus"">Roughly 7% of the world's water is fresh water.</p>
              <audio controls src=""blob:https://charburnham.github.io/737d74b9-24c2-43d2-8891-b78b6397e11d"" class=""playback-audio""></audio>
            </div>
          ","1","html-button-response","14","58464","0.0-10.0-2.0","ha77v84840","","","","","","queued","46F","Roughly 7% of the world's water is fresh water.","false","sentence_review","","1","ha77v84840_46F_audio.webm","accepted","ha77v84840_46F_audio.webm"
"4878","
          <div class=""recording-instructions-box"">
            <h2>Read the sentence aloud</h2>
            <p>Take a moment to get ready. When you are ready to begin, click the button below to start recording.</p>
            <p class=""sentence-stimulus"">The speed limit in New York City was fifteen mph in 1895.</p>
          </div>
        ","0","html-button-response","15","63344","0.0-11.0-0.0","ha77v84840","","","","","","","15F","The speed limit in New York City was fifteen mph in 1895.","false","sentence_ready","","","","",""
"6922","
          <div class=""recording-instructions-box"">
            <h2>Recording in progress</h2>
            <p>Please read the sentence naturally, then click the button when you are done.</p>
            <p class=""sentence-stimulus"">The speed limit in New York City was fifteen mph in 1895.</p>
          </div>
        ","null","html-audio-response","16","70322","0.0-11.0-1.0","ha77v84840","","","","","1","","15F","The speed limit in New York City was fifteen mph in 1895.","false","sentence_recording","blob:https://charburnham.github.io/aa9c43ca-ed04-4572-b692-4841dd773c4b","1","ha77v84840_15F_audio.webm","",""
"853","
            <div class=""recording-instructions-box"">
              <h2>Review your recording</h2>
              <p>Listen to your recording for this sentence. If you want, you can record it again before moving on.</p>
              <p class=""sentence-stimulus"">The speed limit in New York City was fifteen mph in 1895.</p>
              <audio controls src=""blob:https://charburnham.github.io/aa9c43ca-ed04-4572-b692-4841dd773c4b"" class=""playback-audio""></audio>
            </div>
          ","1","html-button-response","17","71176","0.0-11.0-2.0","ha77v84840","","","","","","queued","15F","The speed limit in New York City was fifteen mph in 1895.","false","sentence_review","","1","ha77v84840_15F_audio.webm","accepted","ha77v84840_15F_audio.webm"
"3174","
          <div class=""recording-instructions-box"">
            <h2>Read the sentence aloud</h2>
            <p>Take a moment to get ready. When you are ready to begin, click the button below to start recording.</p>
            <p class=""sentence-stimulus"">James Monroe was the shortest U.S. president.</p>
          </div>
        ","0","html-button-response","18","74351","0.0-12.0-0.0","ha77v84840","","","","","","","40F","James Monroe was the shortest U.S. president.","false","sentence_ready","","","","",""
"4040","
          <div class=""recording-instructions-box"">
            <h2>Recording in progress</h2>
            <p>Please read the sentence naturally, then click the button when you are done.</p>
            <p class=""sentence-stimulus"">James Monroe was the shortest U.S. president.</p>
          </div>
        ","null","html-audio-response","19","78449","0.0-12.0-1.0","ha77v84840","","","","","1","","40F","James Monroe was the shortest U.S. president.","false","sentence_recording","blob:https://charburnham.github.io/eec32bba-d8ec-4831-b8e4-ca6a2ee09b68","1","ha77v84840_40F_audio.webm","",""
"910","
            <div class=""recording-instructions-box"">
              <h2>Review your recording</h2>
              <p>Listen to your recording for this sentence. If you want, you can record it again before moving on.</p>
              <p class=""sentence-stimulus"">James Monroe was the shortest U.S. president.</p>
              <audio controls src=""blob:https://charburnham.github.io/eec32bba-d8ec-4831-b8e4-ca6a2ee09b68"" class=""playback-audio""></audio>
            </div>
          ","1","html-button-response","20","79360","0.0-12.0-2.0","ha77v84840","","","","","","queued","40F","James Monroe was the shortest U.S. president.","false","sentence_review","","1","ha77v84840_40F_audio.webm","accepted","ha77v84840_40F_audio.webm"
"2078","
          <div class=""recording-instructions-box"">
            <h2>Read the sentence aloud</h2>
            <p>Take a moment to get ready. When you are ready to begin, click the button below to start recording.</p>
            <p class=""sentence-stimulus"">Automobiles were invented before traffic lights.</p>
          </div>
        ","0","html-button-response","21","81439","0.0-13.0-0.0","ha77v84840","","","","","","","26F","Automobiles were invented before traffic lights.","false","sentence_ready","","","","",""
"5079","
          <div class=""recording-instructions-box"">
            <h2>Recording in progress</h2>
            <p>Please read the sentence naturally, then click the button when you are done.</p>
            <p class=""sentence-stimulus"">Automobiles were invented before traffic lights.</p>
          </div>
        ","null","html-audio-response","22","86577","0.0-13.0-1.0","ha77v84840","","","","","1","","26F","Automobiles were invented before traffic lights.","false","sentence_recording","blob:https://charburnham.github.io/7b83e85e-823c-40d6-8a49-7f0545d4f8fe","1","ha77v84840_26F_audio.webm","",""
"749","
            <div class=""recording-instructions-box"">
              <h2>Review your recording</h2>
              <p>Listen to your recording for this sentence. If you want, you can record it again before moving on.</p>
              <p class=""sentence-stimulus"">Automobiles were invented before traffic lights.</p>
              <audio controls src=""blob:https://charburnham.github.io/7b83e85e-823c-40d6-8a49-7f0545d4f8fe"" class=""playback-audio""></audio>
            </div>
          ","1","html-button-response","23","87327","0.0-13.0-2.0","ha77v84840","","","","","","queued","26F","Automobiles were invented before traffic lights.","false","sentence_review","","1","ha77v84840_26F_audio.webm","accepted","ha77v84840_26F_audio.webm"
"2030","
          <div class=""recording-instructions-box"">
            <h2>Read the sentence aloud</h2>
            <p>Take a moment to get ready. When you are ready to begin, click the button below to start recording.</p>
            <p class=""sentence-stimulus"">A bee has 3 eyes.</p>
          </div>
        ","0","html-button-response","24","89359","0.0-14.0-0.0","ha77v84840","","","","","","","4F","A bee has 3 eyes.","false","sentence_ready","","","","",""
"3223","
          <div class=""recording-instructions-box"">
            <h2>Recording in progress</h2>
            <p>Please read the sentence naturally, then click the button when you are done.</p>
            <p class=""sentence-stimulus"">A bee has 3 eyes.</p>
          </div>
        ","null","html-audio-response","25","92641","0.0-14.0-1.0","ha77v84840","","","","","1","","4F","A bee has 3 eyes.","false","sentence_recording","blob:https://charburnham.github.io/5d9616b3-ed45-4802-b7c6-580751c640b9","1","ha77v84840_4F_audio.webm","",""
"997","
            <div class=""recording-instructions-box"">
              <h2>Review your recording</h2>
              <p>Listen to your recording for this sentence. If you want, you can record it again before moving on.</p>
              <p class=""sentence-stimulus"">A bee has 3 eyes.</p>
              <audio controls src=""blob:https://charburnham.github.io/5d9616b3-ed45-4802-b7c6-580751c640b9"" class=""playback-audio""></audio>
            </div>
          ","1","html-button-response","26","93639","0.0-14.0-2.0","ha77v84840","","","","","","queued","4F","A bee has 3 eyes.","false","sentence_review","","1","ha77v84840_4F_audio.webm","accepted","ha77v84840_4F_audio.webm"
"1934","
          <div class=""recording-instructions-box"">
            <h2>Read the sentence aloud</h2>
            <p>Take a moment to get ready. When you are ready to begin, click the button below to start recording.</p>
            <p class=""sentence-stimulus"">An ostrich's eye is half the size of its brain.</p>
          </div>
        ","0","html-button-response","27","95575","0.0-15.0-0.0","ha77v84840","","","","","","","38F","An ostrich's eye is half the size of its brain.","false","sentence_ready","","","","",""
"4356","
          <div class=""recording-instructions-box"">
            <h2>Recording in progress</h2>
            <p>Please read the sentence naturally, then click the button when you are done.</p>
            <p class=""sentence-stimulus"">An ostrich's eye is half the size of its brain.</p>
          </div>
        ","null","html-audio-response","28","99992","0.0-15.0-1.0","ha77v84840","","","","","1","","38F","An ostrich's eye is half the size of its brain.","false","sentence_recording","blob:https://charburnham.github.io/12dcea61-d1bc-4651-8a67-499678c963e0","1","ha77v84840_38F_audio.webm","",""
"1062","
            <div class=""recording-instructions-box"">
              <h2>Review your recording</h2>
              <p>Listen to your recording for this sentence. If you want, you can record it again before moving on.</p>
              <p class=""sentence-stimulus"">An ostrich's eye is half the size of its brain.</p>
              <audio controls src=""blob:https://charburnham.github.io/12dcea61-d1bc-4651-8a67-499678c963e0"" class=""playback-audio""></audio>
            </div>
          ","1","html-button-response","29","101055","0.0-15.0-2.0","ha77v84840","","","","","","queued","38F","An ostrich's eye is half the size of its brain.","false","sentence_review","","1","ha77v84840_38F_audio.webm","accepted","ha77v84840_38F_audio.webm"
"2126","
          <div class=""recording-instructions-box"">
            <h2>Read the sentence aloud</h2>
            <p>Take a moment to get ready. When you are ready to begin, click the button below to start recording.</p>
            <p class=""sentence-stimulus"">Traffic lights were invented before automobiles.</p>
          </div>
        ","0","html-button-response","30","103183","0.0-16.0-0.0","ha77v84840","","","","","","","26T","Traffic lights were invented before automobiles.","true","sentence_ready","","","","",""
"4466","
          <div class=""recording-instructions-box"">
            <h2>Recording in progress</h2>
            <p>Please read the sentence naturally, then click the button when you are done.</p>
            <p class=""sentence-stimulus"">Traffic lights were invented before automobiles.</p>
          </div>
        ","null","html-audio-response","31","107712","0.0-16.0-1.0","ha77v84840","","","","","1","","26T","Traffic lights were invented before automobiles.","true","sentence_recording","blob:https://charburnham.github.io/02034d69-b2dc-4007-afe2-f15d04fcf983","1","ha77v84840_26T_audio.webm","",""
"709","
            <div class=""recording-instructions-box"">
              <h2>Review your recording</h2>
              <p>Listen to your recording for this sentence. If you want, you can record it again before moving on.</p>
              <p class=""sentence-stimulus"">Traffic lights were invented before automobiles.</p>
              <audio controls src=""blob:https://charburnham.github.io/02034d69-b2dc-4007-afe2-f15d04fcf983"" class=""playback-audio""></audio>
            </div>
          ","1","html-button-response","32","108423","0.0-16.0-2.0","ha77v84840","","","","","","queued","26T","Traffic lights were invented before automobiles.","true","sentence_review","","1","ha77v84840_26T_audio.webm","accepted","ha77v84840_26T_audio.webm"
"2878","
          <div class=""recording-instructions-box"">
            <h2>Read the sentence aloud</h2>
            <p>Take a moment to get ready. When you are ready to begin, click the button below to start recording.</p>
            <p class=""sentence-stimulus"">Women blink more frequently than do men.</p>
          </div>
        ","0","html-button-response","33","111303","0.0-17.0-0.0","ha77v84840","","","","","","","F19T","Women blink more frequently than do men.","true","sentence_ready","","","","",""
"4434","
          <div class=""recording-instructions-box"">
            <h2>Recording in progress</h2>
            <p>Please read the sentence naturally, then click the button when you are done.</p>
            <p class=""sentence-stimulus"">Women blink more frequently than do men.</p>
          </div>
        ","null","html-audio-response","34","115800","0.0-17.0-1.0","ha77v84840","","","","","1","","F19T","Women blink more frequently than do men.","true","sentence_recording","blob:https://charburnham.github.io/b80aa349-1b9d-44e3-a595-2f0ceef35b72","1","ha77v84840_F19T_audio.webm","",""
"878","
            <div class=""recording-instructions-box"">
              <h2>Review your recording</h2>
              <p>Listen to your recording for this sentence. If you want, you can record it again before moving on.</p>
              <p class=""sentence-stimulus"">Women blink more frequently than do men.</p>
              <audio controls src=""blob:https://charburnham.github.io/b80aa349-1b9d-44e3-a595-2f0ceef35b72"" class=""playback-audio""></audio>
            </div>
          ","0","html-button-response","35","116679","0.0-17.0-2.0","ha77v84840","","","","","","not_uploaded_rerecorded","F19T","Women blink more frequently than do men.","true","sentence_review","","1","ha77v84840_F19T_audio.webm","rerecord","null"
"7727","
          <div class=""recording-instructions-box"">
            <h2>Read the sentence aloud</h2>
            <p>Take a moment to get ready. When you are ready to begin, click the button below to start recording.</p>
            <p class=""sentence-stimulus"">Women blink more frequently than do men.</p>
          </div>
        ","0","html-button-response","36","124407","0.0-17.1-0.1","ha77v84840","","","","","","","F19T","Women blink more frequently than do men.","true","sentence_ready","","","","",""
"4031","
          <div class=""recording-instructions-box"">
            <h2>Recording in progress</h2>
            <p>Please read the sentence naturally, then click the button when you are done.</p>
            <p class=""sentence-stimulus"">Women blink more frequently than do men.</p>
          </div>
        ","null","html-audio-response","37","128496","0.0-17.1-1.1","ha77v84840","","","","","1","","F19T","Women blink more frequently than do men.","true","sentence_recording","blob:https://charburnham.github.io/5619d60c-948f-4ad4-bf4e-74e883001569","2","ha77v84840_F19T_audio.webm","",""
"1062","
            <div class=""recording-instructions-box"">
              <h2>Review your recording</h2>
              <p>Listen to your recording for this sentence. If you want, you can record it again before moving on.</p>
              <p class=""sentence-stimulus"">Women blink more frequently than do men.</p>
              <audio controls src=""blob:https://charburnham.github.io/5619d60c-948f-4ad4-bf4e-74e883001569"" class=""playback-audio""></audio>
            </div>
          ","1","html-button-response","38","129559","0.0-17.1-2.1","ha77v84840","","","","","","queued","F19T","Women blink more frequently than do men.","true","sentence_review","","2","ha77v84840_F19T_audio.webm","accepted","ha77v84840_F19T_audio.webm"
"1663","
          <div class=""recording-instructions-box"">
            <h2>Read the sentence aloud</h2>
            <p>Take a moment to get ready. When you are ready to begin, click the button below to start recording.</p>
            <p class=""sentence-stimulus"">The world's first nuclear reactor was built in a tennis court.</p>
          </div>
        ","0","html-button-response","39","131223","0.0-18.0-0.0","ha77v84840","","","","","","","2F","The world's first nuclear reactor was built in a tennis court.","false","sentence_ready","","","","",""
"4796","
          <div class=""recording-instructions-box"">
            <h2>Recording in progress</h2>
            <p>Please read the sentence naturally, then click the button when you are done.</p>
            <p class=""sentence-stimulus"">The world's first nuclear reactor was built in a tennis court.</p>
          </div>
        ","null","html-audio-response","40","136080","0.0-18.0-1.0","ha77v84840","","","","","1","","2F","The world's first nuclear reactor was built in a tennis court.","false","sentence_recording","blob:https://charburnham.github.io/c1e0bb74-c2b4-4195-955e-05fd42e52290","1","ha77v84840_2F_audio.webm","",""
"846","
            <div class=""recording-instructions-box"">
              <h2>Review your recording</h2>
              <p>Listen to your recording for this sentence. If you want, you can record it again before moving on.</p>
              <p class=""sentence-stimulus"">The world's first nuclear reactor was built in a tennis court.</p>
              <audio controls src=""blob:https://charburnham.github.io/c1e0bb74-c2b4-4195-955e-05fd42e52290"" class=""playback-audio""></audio>
            </div>
          ","1","html-button-response","41","136927","0.0-18.0-2.0","ha77v84840","","","","","","queued","2F","The world's first nuclear reactor was built in a tennis court.","false","sentence_review","","1","ha77v84840_2F_audio.webm","accepted","ha77v84840_2F_audio.webm"
"2246","
          <div class=""recording-instructions-box"">
            <h2>Read the sentence aloud</h2>
            <p>Take a moment to get ready. When you are ready to begin, click the button below to start recording.</p>
            <p class=""sentence-stimulus"">The average ruby-throated hummingbird weighs less than a nickel.</p>
          </div>
        ","0","html-button-response","42","139174","0.0-19.0-0.0","ha77v84840","","","","","","","8T","The average ruby-throated hummingbird weighs less than a nickel.","true","sentence_ready","","","","",""
"5246","
          <div class=""recording-instructions-box"">
            <h2>Recording in progress</h2>
            <p>Please read the sentence naturally, then click the button when you are done.</p>
            <p class=""sentence-stimulus"">The average ruby-throated hummingbird weighs less than a nickel.</p>
          </div>
        ","null","html-audio-response","43","144480","0.0-19.0-1.0","ha77v84840","","","","","1","","8T","The average ruby-throated hummingbird weighs less than a nickel.","true","sentence_recording","blob:https://charburnham.github.io/b7920eca-7611-44eb-b619-1fbf6999b6bd","1","ha77v84840_8T_audio.webm","",""
"734","
            <div class=""recording-instructions-box"">
              <h2>Review your recording</h2>
              <p>Listen to your recording for this sentence. If you want, you can record it again before moving on.</p>
              <p class=""sentence-stimulus"">The average ruby-throated hummingbird weighs less than a nickel.</p>
              <audio controls src=""blob:https://charburnham.github.io/b7920eca-7611-44eb-b619-1fbf6999b6bd"" class=""playback-audio""></audio>
            </div>
          ","1","html-button-response","44","145214","0.0-19.0-2.0","ha77v84840","","","","","","queued","8T","The average ruby-throated hummingbird weighs less than a nickel.","true","sentence_review","","1","ha77v84840_8T_audio.webm","accepted","ha77v84840_8T_audio.webm"
"1606","
          <div class=""recording-instructions-box"">
            <h2>Read the sentence aloud</h2>
            <p>Take a moment to get ready. When you are ready to begin, click the button below to start recording.</p>
            <p class=""sentence-stimulus"">China only has one official time zone.</p>
          </div>
        ","0","html-button-response","45","146822","0.0-20.0-0.0","ha77v84840","","","","","","","F5T","China only has one official time zone.","true","sentence_ready","","","","",""
"4092","
          <div class=""recording-instructions-box"">
            <h2>Recording in progress</h2>
            <p>Please read the sentence naturally, then click the button when you are done.</p>
            <p class=""sentence-stimulus"">China only has one official time zone.</p>
          </div>
        ","null","html-audio-response","46","150976","0.0-20.0-1.0","ha77v84840","","","","","1","","F5T","China only has one official time zone.","true","sentence_recording","blob:https://charburnham.github.io/b4e2177d-cec0-4079-a895-3afa7319effe","1","ha77v84840_F5T_audio.webm","",""
"766","
            <div class=""recording-instructions-box"">
              <h2>Review your recording</h2>
              <p>Listen to your recording for this sentence. If you want, you can record it again before moving on.</p>
              <p class=""sentence-stimulus"">China only has one official time zone.</p>
              <audio controls src=""blob:https://charburnham.github.io/b4e2177d-cec0-4079-a895-3afa7319effe"" class=""playback-audio""></audio>
            </div>
          ","1","html-button-response","47","151742","0.0-20.0-2.0","ha77v84840","","","","","","queued","F5T","China only has one official time zone.","true","sentence_review","","1","ha77v84840_F5T_audio.webm","accepted","ha77v84840_F5T_audio.webm"
"3030","
          <div class=""recording-instructions-box"">
            <h2>Read the sentence aloud</h2>
            <p>Take a moment to get ready. When you are ready to begin, click the button below to start recording.</p>
            <p class=""sentence-stimulus"">Taiwan is the only country whose national flag is not rectangular.</p>
          </div>
        ","0","html-button-response","48","154774","0.0-21.0-0.0","ha77v84840","","","","","","","35F","Taiwan is the only country whose national flag is not rectangular.","false","sentence_ready","","","","",""
"6158","
          <div class=""recording-instructions-box"">
            <h2>Recording in progress</h2>
            <p>Please read the sentence naturally, then click the button when you are done.</p>
            <p class=""sentence-stimulus"">Taiwan is the only country whose national flag is not rectangular.</p>
          </div>
        ","null","html-audio-response","49","160992","0.0-21.0-1.0","ha77v84840","","","","","1","","35F","Taiwan is the only country whose national flag is not rectangular.","false","sentence_recording","blob:https://charburnham.github.io/c1f575f8-f630-4a61-b48b-33c6ec9dd535","1","ha77v84840_35F_audio.webm","",""
"902","
            <div class=""recording-instructions-box"">
              <h2>Review your recording</h2>
              <p>Listen to your recording for this sentence. If you want, you can record it again before moving on.</p>
              <p class=""sentence-stimulus"">Taiwan is the only country whose national flag is not rectangular.</p>
              <audio controls src=""blob:https://charburnham.github.io/c1f575f8-f630-4a61-b48b-33c6ec9dd535"" class=""playback-audio""></audio>
            </div>
          ","1","html-button-response","50","161894","0.0-21.0-2.0","ha77v84840","","","","","","queued","35F","Taiwan is the only country whose national flag is not rectangular.","false","sentence_review","","1","ha77v84840_35F_audio.webm","accepted","ha77v84840_35F_audio.webm"
"11390","
          <div class=""recording-instructions-box"">
            <h2>Read the sentence aloud</h2>
            <p>Take a moment to get ready. When you are ready to begin, click the button below to start recording.</p>
            <p class=""sentence-stimulus"">In Ancient Egypt, a yard was the length of a man's arm span.</p>
          </div>
        ","0","html-button-response","51","173286","0.0-22.0-0.0","ha77v84840","","","","","","","F15F","In Ancient Egypt, a yard was the length of a man's arm span.","false","sentence_ready","","","","",""
"5602","
          <div class=""recording-instructions-box"">
            <h2>Recording in progress</h2>
            <p>Please read the sentence naturally, then click the button when you are done.</p>
            <p class=""sentence-stimulus"">In Ancient Egypt, a yard was the length of a man's arm span.</p>
          </div>
        ","null","html-audio-response","52","178943","0.0-22.0-1.0","ha77v84840","","","","","1","","F15F","In Ancient Egypt, a yard was the length of a man's arm span.","false","sentence_recording","blob:https://charburnham.github.io/5c291403-a09b-42cd-b036-b7f6e3ea3d2e","1","ha77v84840_F15F_audio.webm","",""
"965","
            <div class=""recording-instructions-box"">
              <h2>Review your recording</h2>
              <p>Listen to your recording for this sentence. If you want, you can record it again before moving on.</p>
              <p class=""sentence-stimulus"">In Ancient Egypt, a yard was the length of a man's arm span.</p>
              <audio controls src=""blob:https://charburnham.github.io/5c291403-a09b-42cd-b036-b7f6e3ea3d2e"" class=""playback-audio""></audio>
            </div>
          ","1","html-button-response","53","179910","0.0-22.0-2.0","ha77v84840","","","","","","queued","F15F","In Ancient Egypt, a yard was the length of a man's arm span.","false","sentence_review","","1","ha77v84840_F15F_audio.webm","accepted","ha77v84840_F15F_audio.webm"
"1614","
          <div class=""recording-instructions-box"">
            <h2>Read the sentence aloud</h2>
            <p>Take a moment to get ready. When you are ready to begin, click the button below to start recording.</p>
            <p class=""sentence-stimulus"">Nepal is the only country whose national flag is not rectangular.</p>
          </div>
        ","0","html-button-response","54","181526","0.0-23.0-0.0","ha77v84840","","","","","","","35T","Nepal is the only country whose national flag is not rectangular.","true","sentence_ready","","","","",""
"3682","
          <div class=""recording-instructions-box"">
            <h2>Recording in progress</h2>
            <p>Please read the sentence naturally, then click the button when you are done.</p>
            <p class=""sentence-stimulus"">Nepal is the only country whose national flag is not rectangular.</p>
          </div>
        ","null","html-audio-response","55","185263","0.0-23.0-1.0","ha77v84840","","","","","1","","35T","Nepal is the only country whose national flag is not rectangular.","true","sentence_recording","blob:https://charburnham.github.io/b3140b93-a171-40df-96e2-46b1d042ff91","1","ha77v84840_35T_audio.webm","",""
"1174","
            <div class=""recording-instructions-box"">
              <h2>Review your recording</h2>
              <p>Listen to your recording for this sentence. If you want, you can record it again before moving on.</p>
              <p class=""sentence-stimulus"">Nepal is the only country whose national flag is not rectangular.</p>
              <audio controls src=""blob:https://charburnham.github.io/b3140b93-a171-40df-96e2-46b1d042ff91"" class=""playback-audio""></audio>
            </div>
          ","0","html-button-response","56","186438","0.0-23.0-2.0","ha77v84840","","","","","","not_uploaded_rerecorded","35T","Nepal is the only country whose national flag is not rectangular.","true","sentence_review","","1","ha77v84840_35T_audio.webm","rerecord","null"
"1223","
          <div class=""recording-instructions-box"">
            <h2>Read the sentence aloud</h2>
            <p>Take a moment to get ready. When you are ready to begin, click the button below to start recording.</p>
            <p class=""sentence-stimulus"">Nepal is the only country whose national flag is not rectangular.</p>
          </div>
        ","0","html-button-response","57","187662","0.0-23.1-0.1","ha77v84840","","","","","","","35T","Nepal is the only country whose national flag is not rectangular.","true","sentence_ready","","","","",""
"5454","
          <div class=""recording-instructions-box"">
            <h2>Recording in progress</h2>
            <p>Please read the sentence naturally, then click the button when you are done.</p>
            <p class=""sentence-stimulus"">Nepal is the only country whose national flag is not rectangular.</p>
          </div>
        ","null","html-audio-response","58","193175","0.0-23.1-1.1","ha77v84840","","","","","1","","35T","Nepal is the only country whose national flag is not rectangular.","true","sentence_recording","blob:https://charburnham.github.io/c4629873-ca7b-4c42-bc10-468669054888","2","ha77v84840_35T_audio.webm","",""
"734","
            <div class=""recording-instructions-box"">
              <h2>Review your recording</h2>
              <p>Listen to your recording for this sentence. If you want, you can record it again before moving on.</p>
              <p class=""sentence-stimulus"">Nepal is the only country whose national flag is not rectangular.</p>
              <audio controls src=""blob:https://charburnham.github.io/c4629873-ca7b-4c42-bc10-468669054888"" class=""playback-audio""></audio>
            </div>
          ","1","html-button-response","59","193910","0.0-23.1-2.1","ha77v84840","","","","","","queued","35T","Nepal is the only country whose national flag is not rectangular.","true","sentence_review","","2","ha77v84840_35T_audio.webm","accepted","ha77v84840_35T_audio.webm"
"1406","
          <div class=""recording-instructions-box"">
            <h2>Read the sentence aloud</h2>
            <p>Take a moment to get ready. When you are ready to begin, click the button below to start recording.</p>
            <p class=""sentence-stimulus"">A jellyfish is more than 95% water.</p>
          </div>
        ","0","html-button-response","60","195317","0.0-24.0-0.0","ha77v84840","","","","","","","F9T","A jellyfish is more than 95% water.","true","sentence_ready","","","","",""
"4227","
          <div class=""recording-instructions-box"">
            <h2>Recording in progress</h2>
            <p>Please read the sentence naturally, then click the button when you are done.</p>
            <p class=""sentence-stimulus"">A jellyfish is more than 95% water.</p>
          </div>
        ","null","html-audio-response","61","199607","0.0-24.0-1.0","ha77v84840","","","","","1","","F9T","A jellyfish is more than 95% water.","true","sentence_recording","blob:https://charburnham.github.io/5894cb8e-0e5d-4abe-8166-a00a4bbee1cc","1","ha77v84840_F9T_audio.webm","",""
"798","
            <div class=""recording-instructions-box"">
              <h2>Review your recording</h2>
              <p>Listen to your recording for this sentence. If you want, you can record it again before moving on.</p>
              <p class=""sentence-stimulus"">A jellyfish is more than 95% water.</p>
              <audio controls src=""blob:https://charburnham.github.io/5894cb8e-0e5d-4abe-8166-a00a4bbee1cc"" class=""playback-audio""></audio>
            </div>
          ","1","html-button-response","62","200406","0.0-24.0-2.0","ha77v84840","","","","","","queued","F9T","A jellyfish is more than 95% water.","true","sentence_review","","1","ha77v84840_F9T_audio.webm","accepted","ha77v84840_F9T_audio.webm"
"2190","
          <div class=""recording-instructions-box"">
            <h2>Read the sentence aloud</h2>
            <p>Take a moment to get ready. When you are ready to begin, click the button below to start recording.</p>
            <p class=""sentence-stimulus"">Children tend to grow faster in the winter.</p>
          </div>
        ","0","html-button-response","63","202597","0.0-25.0-0.0","ha77v84840","","","","","","","F12F","Children tend to grow faster in the winter.","false","sentence_ready","","","","",""
"3907","
          <div class=""recording-instructions-box"">
            <h2>Recording in progress</h2>
            <p>Please read the sentence naturally, then click the button when you are done.</p>
            <p class=""sentence-stimulus"">Children tend to grow faster in the winter.</p>
          </div>
        ","null","html-audio-response","64","206567","0.0-25.0-1.0","ha77v84840","","","","","1","","F12F","Children tend to grow faster in the winter.","false","sentence_recording","blob:https://charburnham.github.io/69facfc0-54c7-4627-91d6-2ddb17f20836","1","ha77v84840_F12F_audio.webm","",""
"1070","
            <div class=""recording-instructions-box"">
              <h2>Review your recording</h2>
              <p>Listen to your recording for this sentence. If you want, you can record it again before moving on.</p>
              <p class=""sentence-stimulus"">Children tend to grow faster in the winter.</p>
              <audio controls src=""blob:https://charburnham.github.io/69facfc0-54c7-4627-91d6-2ddb17f20836"" class=""playback-audio""></audio>
            </div>
          ","1","html-button-response","65","207637","0.0-25.0-2.0","ha77v84840","","","","","","queued","F12F","Children tend to grow faster in the winter.","false","sentence_review","","1","ha77v84840_F12F_audio.webm","accepted","ha77v84840_F12F_audio.webm"
"1759","
          <div class=""recording-instructions-box"">
            <h2>Read the sentence aloud</h2>
            <p>Take a moment to get ready. When you are ready to begin, click the button below to start recording.</p>
            <p class=""sentence-stimulus"">Tapeworms can reach up to 98 feet in length.</p>
          </div>
        ","0","html-button-response","66","209397","0.0-26.0-0.0","ha77v84840","","","","","","","47T","Tapeworms can reach up to 98 feet in length.","true","sentence_ready","","","","",""
"4700","
          <div class=""recording-instructions-box"">
            <h2>Recording in progress</h2>
            <p>Please read the sentence naturally, then click the button when you are done.</p>
            <p class=""sentence-stimulus"">Tapeworms can reach up to 98 feet in length.</p>
          </div>
        ","null","html-audio-response","67","214159","0.0-26.0-1.0","ha77v84840","","","","","1","","47T","Tapeworms can reach up to 98 feet in length.","true","sentence_recording","blob:https://charburnham.github.io/97514148-0964-41f2-87dd-75d0cfe5273b","1","ha77v84840_47T_audio.webm","",""
"782","
            <div class=""recording-instructions-box"">
              <h2>Review your recording</h2>
              <p>Listen to your recording for this sentence. If you want, you can record it again before moving on.</p>
              <p class=""sentence-stimulus"">Tapeworms can reach up to 98 feet in length.</p>
              <audio controls src=""blob:https://charburnham.github.io/97514148-0964-41f2-87dd-75d0cfe5273b"" class=""playback-audio""></audio>
            </div>
          ","1","html-button-response","68","214941","0.0-26.0-2.0","ha77v84840","","","","","","queued","47T","Tapeworms can reach up to 98 feet in length.","true","sentence_review","","1","ha77v84840_47T_audio.webm","accepted","ha77v84840_47T_audio.webm"
"1734","
          <div class=""recording-instructions-box"">
            <h2>Read the sentence aloud</h2>
            <p>Take a moment to get ready. When you are ready to begin, click the button below to start recording.</p>
            <p class=""sentence-stimulus"">A shrimp's heart is located in its head.</p>
          </div>
        ","0","html-button-response","69","216677","0.0-27.0-0.0","ha77v84840","","","","","","","51T","A shrimp's heart is located in its head.","true","sentence_ready","","","","",""
"4228","
          <div class=""recording-instructions-box"">
            <h2>Recording in progress</h2>
            <p>Please read the sentence naturally, then click the button when you are done.</p>
            <p class=""sentence-stimulus"">A shrimp's heart is located in its head.</p>
          </div>
        ","null","html-audio-response","70","220968","0.0-27.0-1.0","ha77v84840","","","","","1","","51T","A shrimp's heart is located in its head.","true","sentence_recording","blob:https://charburnham.github.io/15c08bf9-ac9a-4f38-af63-f58ff6050624","1","ha77v84840_51T_audio.webm","",""
"820","
            <div class=""recording-instructions-box"">
              <h2>Review your recording</h2>
              <p>Listen to your recording for this sentence. If you want, you can record it again before moving on.</p>
              <p class=""sentence-stimulus"">A shrimp's heart is located in its head.</p>
              <audio controls src=""blob:https://charburnham.github.io/15c08bf9-ac9a-4f38-af63-f58ff6050624"" class=""playback-audio""></audio>
            </div>
          ","1","html-button-response","71","221789","0.0-27.0-2.0","ha77v84840","","","","","","queued","51T","A shrimp's heart is located in its head.","true","sentence_review","","1","ha77v84840_51T_audio.webm","accepted","ha77v84840_51T_audio.webm"
"4223","
          <div class=""recording-instructions-box"">
            <h2>Read the sentence aloud</h2>
            <p>Take a moment to get ready. When you are ready to begin, click the button below to start recording.</p>
            <p class=""sentence-stimulus"">Gerald Ford was the first U.S. president born in a hospital.</p>
          </div>
        ","0","html-button-response","72","226013","0.0-28.0-0.0","ha77v84840","","","","","","","39F","Gerald Ford was the first U.S. president born in a hospital.","false","sentence_ready","","","","",""
"5426","
          <div class=""recording-instructions-box"">
            <h2>Recording in progress</h2>
            <p>Please read the sentence naturally, then click the button when you are done.</p>
            <p class=""sentence-stimulus"">Gerald Ford was the first U.S. president born in a hospital.</p>
          </div>
        ","null","html-audio-response","73","231493","0.0-28.0-1.0","ha77v84840","","","","","1","","39F","Gerald Ford was the first U.S. president born in a hospital.","false","sentence_recording","blob:https://charburnham.github.io/323a3a0e-2dde-438e-8c6a-36ff5bdf1aab","1","ha77v84840_39F_audio.webm","",""
"1198","
            <div class=""recording-instructions-box"">
              <h2>Review your recording</h2>
              <p>Listen to your recording for this sentence. If you want, you can record it again before moving on.</p>
              <p class=""sentence-stimulus"">Gerald Ford was the first U.S. president born in a hospital.</p>
              <audio controls src=""blob:https://charburnham.github.io/323a3a0e-2dde-438e-8c6a-36ff5bdf1aab"" class=""playback-audio""></audio>
            </div>
          ","1","html-button-response","74","232693","0.0-28.0-2.0","ha77v84840","","","","","","queued","39F","Gerald Ford was the first U.S. president born in a hospital.","false","sentence_review","","1","ha77v84840_39F_audio.webm","accepted","ha77v84840_39F_audio.webm"
"5790","
          <div class=""recording-instructions-box"">
            <h2>Read the sentence aloud</h2>
            <p>Take a moment to get ready. When you are ready to begin, click the button below to start recording.</p>
            <p class=""sentence-stimulus"">Oregon's state birthday is on Valentine's Day.</p>
          </div>
        ","0","html-button-response","75","238484","0.0-29.0-0.0","ha77v84840","","","","","","","31T","Oregon's state birthday is on Valentine's Day.","true","sentence_ready","","","","",""
"4748","
          <div class=""recording-instructions-box"">
            <h2>Recording in progress</h2>
            <p>Please read the sentence naturally, then click the button when you are done.</p>
            <p class=""sentence-stimulus"">Oregon's state birthday is on Valentine's Day.</p>
          </div>
        ","null","html-audio-response","76","243294","0.0-29.0-1.0","ha77v84840","","","","","1","","31T","Oregon's state birthday is on Valentine's Day.","true","sentence_recording","blob:https://charburnham.github.io/5219d89b-1b95-4fdd-aae1-6a56e5b28793","1","ha77v84840_31T_audio.webm","",""
"926","
            <div class=""recording-instructions-box"">
              <h2>Review your recording</h2>
              <p>Listen to your recording for this sentence. If you want, you can record it again before moving on.</p>
              <p class=""sentence-stimulus"">Oregon's state birthday is on Valentine's Day.</p>
              <audio controls src=""blob:https://charburnham.github.io/5219d89b-1b95-4fdd-aae1-6a56e5b28793"" class=""playback-audio""></audio>
            </div>
          ","1","html-button-response","77","244221","0.0-29.0-2.0","ha77v84840","","","","","","queued","31T","Oregon's state birthday is on Valentine's Day.","true","sentence_review","","1","ha77v84840_31T_audio.webm","accepted","ha77v84840_31T_audio.webm"
"1646","
          <div class=""recording-instructions-box"">
            <h2>Read the sentence aloud</h2>
            <p>Take a moment to get ready. When you are ready to begin, click the button below to start recording.</p>
            <p class=""sentence-stimulus"">Venus rotates clockwise.</p>
          </div>
        ","0","html-button-response","78","245869","0.0-30.0-0.0","ha77v84840","","","","","","","33T","Venus rotates clockwise.","true","sentence_ready","","","","",""
"3760","
          <div class=""recording-instructions-box"">
            <h2>Recording in progress</h2>
            <p>Please read the sentence naturally, then click the button when you are done.</p>
            <p class=""sentence-stimulus"">Venus rotates clockwise.</p>
          </div>
        ","null","html-audio-response","79","249686","0.0-30.0-1.0","ha77v84840","","","","","1","","33T","Venus rotates clockwise.","true","sentence_recording","blob:https://charburnham.github.io/6dfcf3a7-6de9-40bc-96ed-f9cea965fc9a","1","ha77v84840_33T_audio.webm","",""
"758","
            <div class=""recording-instructions-box"">
              <h2>Review your recording</h2>
              <p>Listen to your recording for this sentence. If you want, you can record it again before moving on.</p>
              <p class=""sentence-stimulus"">Venus rotates clockwise.</p>
              <audio controls src=""blob:https://charburnham.github.io/6dfcf3a7-6de9-40bc-96ed-f9cea965fc9a"" class=""playback-audio""></audio>
            </div>
          ","1","html-button-response","80","250445","0.0-30.0-2.0","ha77v84840","","","","","","queued","33T","Venus rotates clockwise.","true","sentence_review","","1","ha77v84840_33T_audio.webm","accepted","ha77v84840_33T_audio.webm"
"2118","
          <div class=""recording-instructions-box"">
            <h2>Read the sentence aloud</h2>
            <p>Take a moment to get ready. When you are ready to begin, click the button below to start recording.</p>
            <p class=""sentence-stimulus"">Mississippi's state birthday is on Valentine's Day.</p>
          </div>
        ","0","html-button-response","81","252564","0.0-31.0-0.0","ha77v84840","","","","","","","31F","Mississippi's state birthday is on Valentine's Day.","false","sentence_ready","","","","",""
"4500","
          <div class=""recording-instructions-box"">
            <h2>Recording in progress</h2>
            <p>Please read the sentence naturally, then click the button when you are done.</p>
            <p class=""sentence-stimulus"">Mississippi's state birthday is on Valentine's Day.</p>
          </div>
        ","null","html-audio-response","82","257126","0.0-31.0-1.0","ha77v84840","","","","","1","","31F","Mississippi's state birthday is on Valentine's Day.","false","sentence_recording","blob:https://charburnham.github.io/e5e29871-81cd-415e-ad40-1f8386335ac1","1","ha77v84840_31F_audio.webm","",""
"742","
            <div class=""recording-instructions-box"">
              <h2>Review your recording</h2>
              <p>Listen to your recording for this sentence. If you want, you can record it again before moving on.</p>
              <p class=""sentence-stimulus"">Mississippi's state birthday is on Valentine's Day.</p>
              <audio controls src=""blob:https://charburnham.github.io/e5e29871-81cd-415e-ad40-1f8386335ac1"" class=""playback-audio""></audio>
            </div>
          ","1","html-button-response","83","257869","0.0-31.0-2.0","ha77v84840","","","","","","queued","31F","Mississippi's state birthday is on Valentine's Day.","false","sentence_review","","1","ha77v84840_31F_audio.webm","accepted","ha77v84840_31F_audio.webm"
"2223","
          <div class=""recording-instructions-box"">
            <h2>Read the sentence aloud</h2>
            <p>Take a moment to get ready. When you are ready to begin, click the button below to start recording.</p>
            <p class=""sentence-stimulus"">The mouth of the Statue of Liberty is 3 feet wide.</p>
          </div>
        ","0","html-button-response","84","260092","0.0-32.0-0.0","ha77v84840","","","","","","","18T","The mouth of the Statue of Liberty is 3 feet wide.","true","sentence_ready","","","","",""
"4458","
          <div class=""recording-instructions-box"">
            <h2>Recording in progress</h2>
            <p>Please read the sentence naturally, then click the button when you are done.</p>
            <p class=""sentence-stimulus"">The mouth of the Statue of Liberty is 3 feet wide.</p>
          </div>
        ","null","html-audio-response","85","264614","0.0-32.0-1.0","ha77v84840","","","","","1","","18T","The mouth of the Statue of Liberty is 3 feet wide.","true","sentence_recording","blob:https://charburnham.github.io/7a291c73-c790-4f2e-a306-db67e0309e9d","1","ha77v84840_18T_audio.webm","",""
"806","
            <div class=""recording-instructions-box"">
              <h2>Review your recording</h2>
              <p>Listen to your recording for this sentence. If you want, you can record it again before moving on.</p>
              <p class=""sentence-stimulus"">The mouth of the Statue of Liberty is 3 feet wide.</p>
              <audio controls src=""blob:https://charburnham.github.io/7a291c73-c790-4f2e-a306-db67e0309e9d"" class=""playback-audio""></audio>
            </div>
          ","0","html-button-response","86","265420","0.0-32.0-2.0","ha77v84840","","","","","","not_uploaded_rerecorded","18T","The mouth of the Statue of Liberty is 3 feet wide.","true","sentence_review","","1","ha77v84840_18T_audio.webm","rerecord","null"
"1191","
          <div class=""recording-instructions-box"">
            <h2>Read the sentence aloud</h2>
            <p>Take a moment to get ready. When you are ready to begin, click the button below to start recording.</p>
            <p class=""sentence-stimulus"">The mouth of the Statue of Liberty is 3 feet wide.</p>
          </div>
        ","0","html-button-response","87","266612","0.0-32.1-0.1","ha77v84840","","","","","","","18T","The mouth of the Statue of Liberty is 3 feet wide.","true","sentence_ready","","","","",""
"4763","
          <div class=""recording-instructions-box"">
            <h2>Recording in progress</h2>
            <p>Please read the sentence naturally, then click the button when you are done.</p>
            <p class=""sentence-stimulus"">The mouth of the Statue of Liberty is 3 feet wide.</p>
          </div>
        ","null","html-audio-response","88","271438","0.0-32.1-1.1","ha77v84840","","","","","1","","18T","The mouth of the Statue of Liberty is 3 feet wide.","true","sentence_recording","blob:https://charburnham.github.io/4c7a13f6-af1c-4f16-b256-52bfe0db3812","2","ha77v84840_18T_audio.webm","",""
"718","
            <div class=""recording-instructions-box"">
              <h2>Review your recording</h2>
              <p>Listen to your recording for this sentence. If you want, you can record it again before moving on.</p>
              <p class=""sentence-stimulus"">The mouth of the Statue of Liberty is 3 feet wide.</p>
              <audio controls src=""blob:https://charburnham.github.io/4c7a13f6-af1c-4f16-b256-52bfe0db3812"" class=""playback-audio""></audio>
            </div>
          ","1","html-button-response","89","272156","0.0-32.1-2.1","ha77v84840","","","","","","queued","18T","The mouth of the Statue of Liberty is 3 feet wide.","true","sentence_review","","2","ha77v84840_18T_audio.webm","accepted","ha77v84840_18T_audio.webm"
"1654","
          <div class=""recording-instructions-box"">
            <h2>Read the sentence aloud</h2>
            <p>Take a moment to get ready. When you are ready to begin, click the button below to start recording.</p>
            <p class=""sentence-stimulus"">Elephants can jump higher than humans.</p>
          </div>
        ","0","html-button-response","90","273812","0.0-33.0-0.0","ha77v84840","","","","","","","F3F","Elephants can jump higher than humans.","false","sentence_ready","","","","",""
"4347","
          <div class=""recording-instructions-box"">
            <h2>Recording in progress</h2>
            <p>Please read the sentence naturally, then click the button when you are done.</p>
            <p class=""sentence-stimulus"">Elephants can jump higher than humans.</p>
          </div>
        ","null","html-audio-response","91","278221","0.0-33.0-1.0","ha77v84840","","","","","1","","F3F","Elephants can jump higher than humans.","false","sentence_recording","blob:https://charburnham.github.io/ef19ac5e-be02-4a3e-8867-e9782fe4eb6a","1","ha77v84840_F3F_audio.webm","",""
"846","
            <div class=""recording-instructions-box"">
              <h2>Review your recording</h2>
              <p>Listen to your recording for this sentence. If you want, you can record it again before moving on.</p>
              <p class=""sentence-stimulus"">Elephants can jump higher than humans.</p>
              <audio controls src=""blob:https://charburnham.github.io/ef19ac5e-be02-4a3e-8867-e9782fe4eb6a"" class=""playback-audio""></audio>
            </div>
          ","1","html-button-response","92","279068","0.0-33.0-2.0","ha77v84840","","","","","","queued","F3F","Elephants can jump higher than humans.","false","sentence_review","","1","ha77v84840_F3F_audio.webm","accepted","ha77v84840_F3F_audio.webm"
"2191","
          <div class=""recording-instructions-box"">
            <h2>Read the sentence aloud</h2>
            <p>Take a moment to get ready. When you are ready to begin, click the button below to start recording.</p>
            <p class=""sentence-stimulus"">Tapeworms can reach up to 200 feet in length.</p>
          </div>
        ","0","html-button-response","93","281260","0.0-34.0-0.0","ha77v84840","","","","","","","47F","Tapeworms can reach up to 200 feet in length.","false","sentence_ready","","","","",""
"4883","
          <div class=""recording-instructions-box"">
            <h2>Recording in progress</h2>
            <p>Please read the sentence naturally, then click the button when you are done.</p>
            <p class=""sentence-stimulus"">Tapeworms can reach up to 200 feet in length.</p>
          </div>
        ","null","html-audio-response","94","286197","0.0-34.0-1.0","ha77v84840","","","","","1","","47F","Tapeworms can reach up to 200 feet in length.","false","sentence_recording","blob:https://charburnham.github.io/9b8b2238-e403-4999-b065-5dfe2ccc6aa1","1","ha77v84840_47F_audio.webm","",""
"726","
            <div class=""recording-instructions-box"">
              <h2>Review your recording</h2>
              <p>Listen to your recording for this sentence. If you want, you can record it again before moving on.</p>
              <p class=""sentence-stimulus"">Tapeworms can reach up to 200 feet in length.</p>
              <audio controls src=""blob:https://charburnham.github.io/9b8b2238-e403-4999-b065-5dfe2ccc6aa1"" class=""playback-audio""></audio>
            </div>
          ","1","html-button-response","95","286924","0.0-34.0-2.0","ha77v84840","","","","","","queued","47F","Tapeworms can reach up to 200 feet in length.","false","sentence_review","","1","ha77v84840_47F_audio.webm","accepted","ha77v84840_47F_audio.webm"
"1942","
          <div class=""recording-instructions-box"">
            <h2>Read the sentence aloud</h2>
            <p>Take a moment to get ready. When you are ready to begin, click the button below to start recording.</p>
            <p class=""sentence-stimulus"">Your heart stops momentarily when you sneeze.</p>
          </div>
        ","0","html-button-response","96","288868","0.0-35.0-0.0","ha77v84840","","","","","","","F10F","Your heart stops momentarily when you sneeze.","false","sentence_ready","","","","",""
"4650","
          <div class=""recording-instructions-box"">
            <h2>Recording in progress</h2>
            <p>Please read the sentence naturally, then click the button when you are done.</p>
            <p class=""sentence-stimulus"">Your heart stops momentarily when you sneeze.</p>
          </div>
        ","null","html-audio-response","97","293573","0.0-35.0-1.0","ha77v84840","","","","","1","","F10F","Your heart stops momentarily when you sneeze.","false","sentence_recording","blob:https://charburnham.github.io/8abbace4-7ce1-448c-b25d-c34c932631b8","1","ha77v84840_F10F_audio.webm","",""
"534","
            <div class=""recording-instructions-box"">
              <h2>Review your recording</h2>
              <p>Listen to your recording for this sentence. If you want, you can record it again before moving on.</p>
              <p class=""sentence-stimulus"">Your heart stops momentarily when you sneeze.</p>
              <audio controls src=""blob:https://charburnham.github.io/8abbace4-7ce1-448c-b25d-c34c932631b8"" class=""playback-audio""></audio>
            </div>
          ","1","html-button-response","98","294108","0.0-35.0-2.0","ha77v84840","","","","","","queued","F10F","Your heart stops momentarily when you sneeze.","false","sentence_review","","1","ha77v84840_F10F_audio.webm","accepted","ha77v84840_F10F_audio.webm"
"8335","
          <div class=""recording-instructions-box"">
            <h2>Read the sentence aloud</h2>
            <p>Take a moment to get ready. When you are ready to begin, click the button below to start recording.</p>
            <p class=""sentence-stimulus"">Before mercury, brandy was used to fill thermometers.</p>
          </div>
        ","0","html-button-response","99","302444","0.0-36.0-0.0","ha77v84840","","","","","","","F6T","Before mercury, brandy was used to fill thermometers.","true","sentence_ready","","","","",""
"2247","
          <div class=""recording-instructions-box"">
            <h2>Recording in progress</h2>
            <p>Please read the sentence naturally, then click the button when you are done.</p>
            <p class=""sentence-stimulus"">Before mercury, brandy was used to fill thermometers.</p>
          </div>
        ","null","html-audio-response","100","304749","0.0-36.0-1.0","ha77v84840","","","","","1","","F6T","Before mercury, brandy was used to fill thermometers.","true","sentence_recording","blob:https://charburnham.github.io/a009f380-bb45-4a44-bbb2-387d15047bf1","1","ha77v84840_F6T_audio.webm","",""
"566","
            <div class=""recording-instructions-box"">
              <h2>Review your recording</h2>
              <p>Listen to your recording for this sentence. If you want, you can record it again before moving on.</p>
              <p class=""sentence-stimulus"">Before mercury, brandy was used to fill thermometers.</p>
              <audio controls src=""blob:https://charburnham.github.io/a009f380-bb45-4a44-bbb2-387d15047bf1"" class=""playback-audio""></audio>
            </div>
          ","0","html-button-response","101","305316","0.0-36.0-2.0","ha77v84840","","","","","","not_uploaded_rerecorded","F6T","Before mercury, brandy was used to fill thermometers.","true","sentence_review","","1","ha77v84840_F6T_audio.webm","rerecord","null"
"1063","
          <div class=""recording-instructions-box"">
            <h2>Read the sentence aloud</h2>
            <p>Take a moment to get ready. When you are ready to begin, click the button below to start recording.</p>
            <p class=""sentence-stimulus"">Before mercury, brandy was used to fill thermometers.</p>
          </div>
        ","0","html-button-response","102","306380","0.0-36.1-0.1","ha77v84840","","","","","","","F6T","Before mercury, brandy was used to fill thermometers.","true","sentence_ready","","","","",""
"1987","
          <div class=""recording-instructions-box"">
            <h2>Recording in progress</h2>
            <p>Please read the sentence naturally, then click the button when you are done.</p>
            <p class=""sentence-stimulus"">Before mercury, brandy was used to fill thermometers.</p>
          </div>
        ","null","html-audio-response","103","308429","0.0-36.1-1.1","ha77v84840","","","","","1","","F6T","Before mercury, brandy was used to fill thermometers.","true","sentence_recording","blob:https://charburnham.github.io/78f1602d-d1b6-4fe5-a732-5d4fd4c7aea7","2","ha77v84840_F6T_audio.webm","",""
"694","
            <div class=""recording-instructions-box"">
              <h2>Review your recording</h2>
              <p>Listen to your recording for this sentence. If you want, you can record it again before moving on.</p>
              <p class=""sentence-stimulus"">Before mercury, brandy was used to fill thermometers.</p>
              <audio controls src=""blob:https://charburnham.github.io/78f1602d-d1b6-4fe5-a732-5d4fd4c7aea7"" class=""playback-audio""></audio>
            </div>
          ","0","html-button-response","104","309124","0.0-36.1-2.1","ha77v84840","","","","","","not_uploaded_rerecorded","F6T","Before mercury, brandy was used to fill thermometers.","true","sentence_review","","2","ha77v84840_F6T_audio.webm","rerecord","null"
"2375","
          <div class=""recording-instructions-box"">
            <h2>Read the sentence aloud</h2>
            <p>Take a moment to get ready. When you are ready to begin, click the button below to start recording.</p>
            <p class=""sentence-stimulus"">Before mercury, brandy was used to fill thermometers.</p>
          </div>
        ","0","html-button-response","105","311499","0.0-36.2-0.2","ha77v84840","","","","","","","F6T","Before mercury, brandy was used to fill thermometers.","true","sentence_ready","","","","",""
"5683","
          <div class=""recording-instructions-box"">
            <h2>Recording in progress</h2>
            <p>Please read the sentence naturally, then click the button when you are done.</p>
            <p class=""sentence-stimulus"">Before mercury, brandy was used to fill thermometers.</p>
          </div>
        ","null","html-audio-response","106","317245","0.0-36.2-1.2","ha77v84840","","","","","1","","F6T","Before mercury, brandy was used to fill thermometers.","true","sentence_recording","blob:https://charburnham.github.io/122ef3de-a322-4f4b-94d5-04a63e1aebd4","3","ha77v84840_F6T_audio.webm","",""
"742","
            <div class=""recording-instructions-box"">
              <h2>Review your recording</h2>
              <p>Listen to your recording for this sentence. If you want, you can record it again before moving on.</p>
              <p class=""sentence-stimulus"">Before mercury, brandy was used to fill thermometers.</p>
              <audio controls src=""blob:https://charburnham.github.io/122ef3de-a322-4f4b-94d5-04a63e1aebd4"" class=""playback-audio""></audio>
            </div>
          ","1","html-button-response","107","317988","0.0-36.2-2.2","ha77v84840","","","","","","queued","F6T","Before mercury, brandy was used to fill thermometers.","true","sentence_review","","3","ha77v84840_F6T_audio.webm","accepted","ha77v84840_F6T_audio.webm"
"3254","
          <div class=""recording-instructions-box"">
            <h2>Read the sentence aloud</h2>
            <p>Take a moment to get ready. When you are ready to begin, click the button below to start recording.</p>
            <p class=""sentence-stimulus"">The state of Arizona does not observe daylight savings time.</p>
          </div>
        ","0","html-button-response","108","321243","0.0-37.0-0.0","ha77v84840","","","","","","","F8T","The state of Arizona does not observe daylight savings time.","true","sentence_ready","","","","",""
"5216","
          <div class=""recording-instructions-box"">
            <h2>Recording in progress</h2>
            <p>Please read the sentence naturally, then click the button when you are done.</p>
            <p class=""sentence-stimulus"">The state of Arizona does not observe daylight savings time.</p>
          </div>
        ","null","html-audio-response","109","326517","0.0-37.0-1.0","ha77v84840","","","","","1","","F8T","The state of Arizona does not observe daylight savings time.","true","sentence_recording","blob:https://charburnham.github.io/56b2b1ec-698e-428c-9fef-c240fba26037","1","ha77v84840_F8T_audio.webm","",""
"741","
            <div class=""recording-instructions-box"">
              <h2>Review your recording</h2>
              <p>Listen to your recording for this sentence. If you want, you can record it again before moving on.</p>
              <p class=""sentence-stimulus"">The state of Arizona does not observe daylight savings time.</p>
              <audio controls src=""blob:https://charburnham.github.io/56b2b1ec-698e-428c-9fef-c240fba26037"" class=""playback-audio""></audio>
            </div>
          ","1","html-button-response","110","327259","0.0-37.0-2.0","ha77v84840","","","","","","queued","F8T","The state of Arizona does not observe daylight savings time.","true","sentence_review","","1","ha77v84840_F8T_audio.webm","accepted","ha77v84840_F8T_audio.webm"
"1847","
          <div class=""recording-instructions-box"">
            <h2>Read the sentence aloud</h2>
            <p>Take a moment to get ready. When you are ready to begin, click the button below to start recording.</p>
            <p class=""sentence-stimulus"">Blood makes up about 11% of your body's weight.</p>
          </div>
        ","0","html-button-response","111","329107","0.0-38.0-0.0","ha77v84840","","","","","","","22F","Blood makes up about 11% of your body's weight.","false","sentence_ready","","","","",""
"4875","
          <div class=""recording-instructions-box"">
            <h2>Recording in progress</h2>
            <p>Please read the sentence naturally, then click the button when you are done.</p>
            <p class=""sentence-stimulus"">Blood makes up about 11% of your body's weight.</p>
          </div>
        ","null","html-audio-response","112","334045","0.0-38.0-1.0","ha77v84840","","","","","1","","22F","Blood makes up about 11% of your body's weight.","false","sentence_recording","blob:https://charburnham.github.io/e26363c3-649e-4457-b2ed-d750bab3cb13","1","ha77v84840_22F_audio.webm","",""
"718","
            <div class=""recording-instructions-box"">
              <h2>Review your recording</h2>
              <p>Listen to your recording for this sentence. If you want, you can record it again before moving on.</p>
              <p class=""sentence-stimulus"">Blood makes up about 11% of your body's weight.</p>
              <audio controls src=""blob:https://charburnham.github.io/e26363c3-649e-4457-b2ed-d750bab3cb13"" class=""playback-audio""></audio>
            </div>
          ","1","html-button-response","113","334763","0.0-38.0-2.0","ha77v84840","","","","","","queued","22F","Blood makes up about 11% of your body's weight.","false","sentence_review","","1","ha77v84840_22F_audio.webm","accepted","ha77v84840_22F_audio.webm"
"3094","
          <div class=""recording-instructions-box"">
            <h2>Read the sentence aloud</h2>
            <p>Take a moment to get ready. When you are ready to begin, click the button below to start recording.</p>
            <p class=""sentence-stimulus"">A starfish can release approximately 2.5 million eggs at once.</p>
          </div>
        ","0","html-button-response","114","337859","0.0-39.0-0.0","ha77v84840","","","","","","","24T","A starfish can release approximately 2.5 million eggs at once.","true","sentence_ready","","","","",""
"6148","
          <div class=""recording-instructions-box"">
            <h2>Recording in progress</h2>
            <p>Please read the sentence naturally, then click the button when you are done.</p>
            <p class=""sentence-stimulus"">A starfish can release approximately 2.5 million eggs at once.</p>
          </div>
        ","null","html-audio-response","115","344069","0.0-39.0-1.0","ha77v84840","","","","","1","","24T","A starfish can release approximately 2.5 million eggs at once.","true","sentence_recording","blob:https://charburnham.github.io/7fe23a32-a7a9-4347-b6bc-99f5e0015fb4","1","ha77v84840_24T_audio.webm","",""
"813","
            <div class=""recording-instructions-box"">
              <h2>Review your recording</h2>
              <p>Listen to your recording for this sentence. If you want, you can record it again before moving on.</p>
              <p class=""sentence-stimulus"">A starfish can release approximately 2.5 million eggs at once.</p>
              <audio controls src=""blob:https://charburnham.github.io/7fe23a32-a7a9-4347-b6bc-99f5e0015fb4"" class=""playback-audio""></audio>
            </div>
          ","1","html-button-response","116","344882","0.0-39.0-2.0","ha77v84840","","","","","","queued","24T","A starfish can release approximately 2.5 million eggs at once.","true","sentence_review","","1","ha77v84840_24T_audio.webm","accepted","ha77v84840_24T_audio.webm"
"2767","
          <div class=""recording-instructions-box"">
            <h2>Read the sentence aloud</h2>
            <p>Take a moment to get ready. When you are ready to begin, click the button below to start recording.</p>
            <p class=""sentence-stimulus"">The first trains went into operation in the 1700s.</p>
          </div>
        ","0","html-button-response","117","347651","0.0-40.0-0.0","ha77v84840","","","","","","","45T","The first trains went into operation in the 1700s.","true","sentence_ready","","","","",""
"5679","
          <div class=""recording-instructions-box"">
            <h2>Recording in progress</h2>
            <p>Please read the sentence naturally, then click the button when you are done.</p>
            <p class=""sentence-stimulus"">The first trains went into operation in the 1700s.</p>
          </div>
        ","null","html-audio-response","118","353388","0.0-40.0-1.0","ha77v84840","","","","","1","","45T","The first trains went into operation in the 1700s.","true","sentence_recording","blob:https://charburnham.github.io/bf27cda5-2aeb-447d-bd37-991bc3436523","1","ha77v84840_45T_audio.webm","",""
"2102","
            <div class=""recording-instructions-box"">
              <h2>Review your recording</h2>
              <p>Listen to your recording for this sentence. If you want, you can record it again before moving on.</p>
              <p class=""sentence-stimulus"">The first trains went into operation in the 1700s.</p>
              <audio controls src=""blob:https://charburnham.github.io/bf27cda5-2aeb-447d-bd37-991bc3436523"" class=""playback-audio""></audio>
            </div>
          ","1","html-button-response","119","355491","0.0-40.0-2.0","ha77v84840","","","","","","queued","45T","The first trains went into operation in the 1700s.","true","sentence_review","","1","ha77v84840_45T_audio.webm","accepted","ha77v84840_45T_audio.webm"
"2518","
          <div class=""recording-instructions-box"">
            <h2>Read the sentence aloud</h2>
            <p>Take a moment to get ready. When you are ready to begin, click the button below to start recording.</p>
            <p class=""sentence-stimulus"">Golf was invented before tennis.</p>
          </div>
        ","0","html-button-response","120","358011","0.0-41.0-0.0","ha77v84840","","","","","","","27F","Golf was invented before tennis.","false","sentence_ready","","","","",""
"3620","
          <div class=""recording-instructions-box"">
            <h2>Recording in progress</h2>
            <p>Please read the sentence naturally, then click the button when you are done.</p>
            <p class=""sentence-stimulus"">Golf was invented before tennis.</p>
          </div>
        ","null","html-audio-response","121","361700","0.0-41.0-1.0","ha77v84840","","","","","13","","27F","Golf was invented before tennis.","false","sentence_recording","blob:https://charburnham.github.io/3197ed1c-b652-435d-badb-3d36b3bf1f0e","1","ha77v84840_27F_audio.webm","",""
"894","
            <div class=""recording-instructions-box"">
              <h2>Review your recording</h2>
              <p>Listen to your recording for this sentence. If you want, you can record it again before moving on.</p>
              <p class=""sentence-stimulus"">Golf was invented before tennis.</p>
              <audio controls src=""blob:https://charburnham.github.io/3197ed1c-b652-435d-badb-3d36b3bf1f0e"" class=""playback-audio""></audio>
            </div>
          ","1","html-button-response","122","362595","0.0-41.0-2.0","ha77v84840","","","","","","queued","27F","Golf was invented before tennis.","false","sentence_review","","1","ha77v84840_27F_audio.webm","accepted","ha77v84840_27F_audio.webm"
"3095","
          <div class=""recording-instructions-box"">
            <h2>Read the sentence aloud</h2>
            <p>Take a moment to get ready. When you are ready to begin, click the button below to start recording.</p>
            <p class=""sentence-stimulus"">Jupiter's mass is more than 400 times that of the earth.</p>
          </div>
        ","0","html-button-response","123","365691","0.0-42.0-0.0","ha77v84840","","","","","","","52F","Jupiter's mass is more than 400 times that of the earth.","false","sentence_ready","","","","",""
"5016","
          <div class=""recording-instructions-box"">
            <h2>Recording in progress</h2>
            <p>Please read the sentence naturally, then click the button when you are done.</p>
            <p class=""sentence-stimulus"">Jupiter's mass is more than 400 times that of the earth.</p>
          </div>
        ","null","html-audio-response","124","370764","0.0-42.0-1.0","ha77v84840","","","","","1","","52F","Jupiter's mass is more than 400 times that of the earth.","false","sentence_recording","blob:https://charburnham.github.io/812e9f91-95c2-4b68-8684-f693ecf1cc53","1","ha77v84840_52F_audio.webm","",""
"830","
            <div class=""recording-instructions-box"">
              <h2>Review your recording</h2>
              <p>Listen to your recording for this sentence. If you want, you can record it again before moving on.</p>
              <p class=""sentence-stimulus"">Jupiter's mass is more than 400 times that of the earth.</p>
              <audio controls src=""blob:https://charburnham.github.io/812e9f91-95c2-4b68-8684-f693ecf1cc53"" class=""playback-audio""></audio>
            </div>
          ","1","html-button-response","125","371595","0.0-42.0-2.0","ha77v84840","","","","","","queued","52F","Jupiter's mass is more than 400 times that of the earth.","false","sentence_review","","1","ha77v84840_52F_audio.webm","accepted","ha77v84840_52F_audio.webm"
"3062","
          <div class=""recording-instructions-box"">
            <h2>Read the sentence aloud</h2>
            <p>Take a moment to get ready. When you are ready to begin, click the button below to start recording.</p>
            <p class=""sentence-stimulus"">Adult beavers can hold their breath for up to 15 minutes under water.</p>
          </div>
        ","0","html-button-response","126","374658","0.0-43.0-0.0","ha77v84840","","","","","","","3T","Adult beavers can hold their breath for up to 15 minutes under water.","true","sentence_ready","","","","",""
"4222","
          <div class=""recording-instructions-box"">
            <h2>Recording in progress</h2>
            <p>Please read the sentence naturally, then click the button when you are done.</p>
            <p class=""sentence-stimulus"">Adult beavers can hold their breath for up to 15 minutes under water.</p>
          </div>
        ","null","html-audio-response","127","378940","0.0-43.0-1.0","ha77v84840","","","","","1","","3T","Adult beavers can hold their breath for up to 15 minutes under water.","true","sentence_recording","blob:https://charburnham.github.io/b7a375d8-7193-4162-998f-7017f6119404","1","ha77v84840_3T_audio.webm","",""
"2550","
            <div class=""recording-instructions-box"">
              <h2>Review your recording</h2>
              <p>Listen to your recording for this sentence. If you want, you can record it again before moving on.</p>
              <p class=""sentence-stimulus"">Adult beavers can hold their breath for up to 15 minutes under water.</p>
              <audio controls src=""blob:https://charburnham.github.io/b7a375d8-7193-4162-998f-7017f6119404"" class=""playback-audio""></audio>
            </div>
          ","0","html-button-response","128","381490","0.0-43.0-2.0","ha77v84840","","","","","","not_uploaded_rerecorded","3T","Adult beavers can hold their breath for up to 15 minutes under water.","true","sentence_review","","1","ha77v84840_3T_audio.webm","rerecord","null"
"1631","
          <div class=""recording-instructions-box"">
            <h2>Read the sentence aloud</h2>
            <p>Take a moment to get ready. When you are ready to begin, click the button below to start recording.</p>
            <p class=""sentence-stimulus"">Adult beavers can hold their breath for up to 15 minutes under water.</p>
          </div>
        ","0","html-button-response","129","383122","0.0-43.1-0.1","ha77v84840","","","","","","","3T","Adult beavers can hold their breath for up to 15 minutes under water.","true","sentence_ready","","","","",""
"5658","
          <div class=""recording-instructions-box"">
            <h2>Recording in progress</h2>
            <p>Please read the sentence naturally, then click the button when you are done.</p>
            <p class=""sentence-stimulus"">Adult beavers can hold their breath for up to 15 minutes under water.</p>
          </div>
        ","null","html-audio-response","130","388844","0.0-43.1-1.1","ha77v84840","","","","","10","","3T","Adult beavers can hold their breath for up to 15 minutes under water.","true","sentence_recording","blob:https://charburnham.github.io/76f89c79-63aa-4096-9f57-79d629fd8c75","2","ha77v84840_3T_audio.webm","",""
"3205","
            <div class=""recording-instructions-box"">
              <h2>Review your recording</h2>
              <p>Listen to your recording for this sentence. If you want, you can record it again before moving on.</p>
              <p class=""sentence-stimulus"">Adult beavers can hold their breath for up to 15 minutes under water.</p>
              <audio controls src=""blob:https://charburnham.github.io/76f89c79-63aa-4096-9f57-79d629fd8c75"" class=""playback-audio""></audio>
            </div>
          ","0","html-button-response","131","392050","0.0-43.1-2.1","ha77v84840","","","","","","not_uploaded_rerecorded","3T","Adult beavers can hold their breath for up to 15 minutes under water.","true","sentence_review","","2","ha77v84840_3T_audio.webm","rerecord","null"
"935","
          <div class=""recording-instructions-box"">
            <h2>Read the sentence aloud</h2>
            <p>Take a moment to get ready. When you are ready to begin, click the button below to start recording.</p>
            <p class=""sentence-stimulus"">Adult beavers can hold their breath for up to 15 minutes under water.</p>
          </div>
        ","0","html-button-response","132","392986","0.0-43.2-0.2","ha77v84840","","","","","","","3T","Adult beavers can hold their breath for up to 15 minutes under water.","true","sentence_ready","","","","",""
"3620","
          <div class=""recording-instructions-box"">
            <h2>Recording in progress</h2>
            <p>Please read the sentence naturally, then click the button when you are done.</p>
            <p class=""sentence-stimulus"">Adult beavers can hold their breath for up to 15 minutes under water.</p>
          </div>
        ","null","html-audio-response","133","396675","0.0-43.2-1.2","ha77v84840","","","","","10","","3T","Adult beavers can hold their breath for up to 15 minutes under water.","true","sentence_recording","blob:https://charburnham.github.io/dbb005b7-d168-4ae7-b8af-f6b837127cc6","3","ha77v84840_3T_audio.webm","",""
"502","
            <div class=""recording-instructions-box"">
              <h2>Review your recording</h2>
              <p>Listen to your recording for this sentence. If you want, you can record it again before moving on.</p>
              <p class=""sentence-stimulus"">Adult beavers can hold their breath for up to 15 minutes under water.</p>
              <audio controls src=""blob:https://charburnham.github.io/dbb005b7-d168-4ae7-b8af-f6b837127cc6"" class=""playback-audio""></audio>
            </div>
          ","0","html-button-response","134","397178","0.0-43.2-2.2","ha77v84840","","","","","","not_uploaded_rerecorded","3T","Adult beavers can hold their breath for up to 15 minutes under water.","true","sentence_review","","3","ha77v84840_3T_audio.webm","rerecord","null"
"927","
          <div class=""recording-instructions-box"">
            <h2>Read the sentence aloud</h2>
            <p>Take a moment to get ready. When you are ready to begin, click the button below to start recording.</p>
            <p class=""sentence-stimulus"">Adult beavers can hold their breath for up to 15 minutes under water.</p>
          </div>
        ","0","html-button-response","135","398106","0.0-43.3-0.3","ha77v84840","","","","","","","3T","Adult beavers can hold their breath for up to 15 minutes under water.","true","sentence_ready","","","","",""
"5438","
          <div class=""recording-instructions-box"">
            <h2>Recording in progress</h2>
            <p>Please read the sentence naturally, then click the button when you are done.</p>
            <p class=""sentence-stimulus"">Adult beavers can hold their breath for up to 15 minutes under water.</p>
          </div>
        ","null","html-audio-response","136","403603","0.0-43.3-1.3","ha77v84840","","","","","1","","3T","Adult beavers can hold their breath for up to 15 minutes under water.","true","sentence_recording","blob:https://charburnham.github.io/26bdcada-ff3a-4fd2-bfd2-54f86e943e73","4","ha77v84840_3T_audio.webm","",""
"822","
            <div class=""recording-instructions-box"">
              <h2>Review your recording</h2>
              <p>Listen to your recording for this sentence. If you want, you can record it again before moving on.</p>
              <p class=""sentence-stimulus"">Adult beavers can hold their breath for up to 15 minutes under water.</p>
              <audio controls src=""blob:https://charburnham.github.io/26bdcada-ff3a-4fd2-bfd2-54f86e943e73"" class=""playback-audio""></audio>
            </div>
          ","1","html-button-response","137","404426","0.0-43.3-2.3","ha77v84840","","","","","","queued","3T","Adult beavers can hold their breath for up to 15 minutes under water.","true","sentence_review","","4","ha77v84840_3T_audio.webm","accepted","ha77v84840_3T_audio.webm"
"2918","
          <div class=""recording-instructions-box"">
            <h2>Read the sentence aloud</h2>
            <p>Take a moment to get ready. When you are ready to begin, click the button below to start recording.</p>
            <p class=""sentence-stimulus"">If you keep a goldfish in a dark room, it will eventually turn white.</p>
          </div>
        ","0","html-button-response","138","407346","0.0-44.0-0.0","ha77v84840","","","","","","","13T","If you keep a goldfish in a dark room, it will eventually turn white.","true","sentence_ready","","","","",""
"2094","
          <div class=""recording-instructions-box"">
            <h2>Recording in progress</h2>
            <p>Please read the sentence naturally, then click the button when you are done.</p>
            <p class=""sentence-stimulus"">If you keep a goldfish in a dark room, it will eventually turn white.</p>
          </div>
        ","null","html-audio-response","139","409499","0.0-44.0-1.0","ha77v84840","","","","","1","","13T","If you keep a goldfish in a dark room, it will eventually turn white.","true","sentence_recording","blob:https://charburnham.github.io/1e3e5e1f-fa21-4953-8d6e-a4f22cb2ac49","1","ha77v84840_13T_audio.webm","",""
"542","
            <div class=""recording-instructions-box"">
              <h2>Review your recording</h2>
              <p>Listen to your recording for this sentence. If you want, you can record it again before moving on.</p>
              <p class=""sentence-stimulus"">If you keep a goldfish in a dark room, it will eventually turn white.</p>
              <audio controls src=""blob:https://charburnham.github.io/1e3e5e1f-fa21-4953-8d6e-a4f22cb2ac49"" class=""playback-audio""></audio>
            </div>
          ","0","html-button-response","140","410042","0.0-44.0-2.0","ha77v84840","","","","","","not_uploaded_rerecorded","13T","If you keep a goldfish in a dark room, it will eventually turn white.","true","sentence_review","","1","ha77v84840_13T_audio.webm","rerecord","null"
"647","
          <div class=""recording-instructions-box"">
            <h2>Read the sentence aloud</h2>
            <p>Take a moment to get ready. When you are ready to begin, click the button below to start recording.</p>
            <p class=""sentence-stimulus"">If you keep a goldfish in a dark room, it will eventually turn white.</p>
          </div>
        ","0","html-button-response","141","410690","0.0-44.1-0.1","ha77v84840","","","","","","","13T","If you keep a goldfish in a dark room, it will eventually turn white.","true","sentence_ready","","","","",""
"5658","
          <div class=""recording-instructions-box"">
            <h2>Recording in progress</h2>
            <p>Please read the sentence naturally, then click the button when you are done.</p>
            <p class=""sentence-stimulus"">If you keep a goldfish in a dark room, it will eventually turn white.</p>
          </div>
        ","null","html-audio-response","142","416403","0.0-44.1-1.1","ha77v84840","","","","","1","","13T","If you keep a goldfish in a dark room, it will eventually turn white.","true","sentence_recording","blob:https://charburnham.github.io/205c2f3e-9f6c-4322-b781-26c461852174","2","ha77v84840_13T_audio.webm","",""
"741","
            <div class=""recording-instructions-box"">
              <h2>Review your recording</h2>
              <p>Listen to your recording for this sentence. If you want, you can record it again before moving on.</p>
              <p class=""sentence-stimulus"">If you keep a goldfish in a dark room, it will eventually turn white.</p>
              <audio controls src=""blob:https://charburnham.github.io/205c2f3e-9f6c-4322-b781-26c461852174"" class=""playback-audio""></audio>
            </div>
          ","1","html-button-response","143","417146","0.0-44.1-2.1","ha77v84840","","","","","","queued","13T","If you keep a goldfish in a dark room, it will eventually turn white.","true","sentence_review","","2","ha77v84840_13T_audio.webm","accepted","ha77v84840_13T_audio.webm"
"1326","
          <div class=""recording-instructions-box"">
            <h2>Read the sentence aloud</h2>
            <p>Take a moment to get ready. When you are ready to begin, click the button below to start recording.</p>
            <p class=""sentence-stimulus"">A shrimp's heart is located in its abdomen.</p>
          </div>
        ","0","html-button-response","144","418474","0.0-45.0-0.0","ha77v84840","","","","","","","51F","A shrimp's heart is located in its abdomen.","false","sentence_ready","","","","",""
"4141","
          <div class=""recording-instructions-box"">
            <h2>Recording in progress</h2>
            <p>Please read the sentence naturally, then click the button when you are done.</p>
            <p class=""sentence-stimulus"">A shrimp's heart is located in its abdomen.</p>
          </div>
        ","null","html-audio-response","145","422675","0.0-45.0-1.0","ha77v84840","","","","","1","","51F","A shrimp's heart is located in its abdomen.","false","sentence_recording","blob:https://charburnham.github.io/92aab2f3-9e11-4bb7-91a2-886ee8d0ce6b","1","ha77v84840_51F_audio.webm","",""
"646","
            <div class=""recording-instructions-box"">
              <h2>Review your recording</h2>
              <p>Listen to your recording for this sentence. If you want, you can record it again before moving on.</p>
              <p class=""sentence-stimulus"">A shrimp's heart is located in its abdomen.</p>
              <audio controls src=""blob:https://charburnham.github.io/92aab2f3-9e11-4bb7-91a2-886ee8d0ce6b"" class=""playback-audio""></audio>
            </div>
          ","0","html-button-response","146","423321","0.0-45.0-2.0","ha77v84840","","","","","","not_uploaded_rerecorded","51F","A shrimp's heart is located in its abdomen.","false","sentence_review","","1","ha77v84840_51F_audio.webm","rerecord","null"
"807","
          <div class=""recording-instructions-box"">
            <h2>Read the sentence aloud</h2>
            <p>Take a moment to get ready. When you are ready to begin, click the button below to start recording.</p>
            <p class=""sentence-stimulus"">A shrimp's heart is located in its abdomen.</p>
          </div>
        ","0","html-button-response","147","424129","0.0-45.1-0.1","ha77v84840","","","","","","","51F","A shrimp's heart is located in its abdomen.","false","sentence_ready","","","","",""
"4387","
          <div class=""recording-instructions-box"">
            <h2>Recording in progress</h2>
            <p>Please read the sentence naturally, then click the button when you are done.</p>
            <p class=""sentence-stimulus"">A shrimp's heart is located in its abdomen.</p>
          </div>
        ","null","html-audio-response","148","428571","0.0-45.1-1.1","ha77v84840","","","","","1","","51F","A shrimp's heart is located in its abdomen.","false","sentence_recording","blob:https://charburnham.github.io/1124f273-8e8c-44f5-b309-316528574b0f","2","ha77v84840_51F_audio.webm","",""
"750","
            <div class=""recording-instructions-box"">
              <h2>Review your recording</h2>
              <p>Listen to your recording for this sentence. If you want, you can record it again before moving on.</p>
              <p class=""sentence-stimulus"">A shrimp's heart is located in its abdomen.</p>
              <audio controls src=""blob:https://charburnham.github.io/1124f273-8e8c-44f5-b309-316528574b0f"" class=""playback-audio""></audio>
            </div>
          ","1","html-button-response","149","429322","0.0-45.1-2.1","ha77v84840","","","","","","queued","51F","A shrimp's heart is located in its abdomen.","false","sentence_review","","2","ha77v84840_51F_audio.webm","accepted","ha77v84840_51F_audio.webm"
"1494","
          <div class=""recording-instructions-box"">
            <h2>Read the sentence aloud</h2>
            <p>Take a moment to get ready. When you are ready to begin, click the button below to start recording.</p>
            <p class=""sentence-stimulus"">Almonds are part of the apple family.</p>
          </div>
        ","0","html-button-response","150","430817","0.0-46.0-0.0","ha77v84840","","","","","","","9F","Almonds are part of the apple family.","false","sentence_ready","","","","",""
"3809","
          <div class=""recording-instructions-box"">
            <h2>Recording in progress</h2>
            <p>Please read the sentence naturally, then click the button when you are done.</p>
            <p class=""sentence-stimulus"">Almonds are part of the apple family.</p>
          </div>
        ","null","html-audio-response","151","434683","0.0-46.0-1.0","ha77v84840","","","","","1","","9F","Almonds are part of the apple family.","false","sentence_recording","blob:https://charburnham.github.io/4fc24533-58dc-4199-9e19-e24305dfe5ae","1","ha77v84840_9F_audio.webm","",""
"773","
            <div class=""recording-instructions-box"">
              <h2>Review your recording</h2>
              <p>Listen to your recording for this sentence. If you want, you can record it again before moving on.</p>
              <p class=""sentence-stimulus"">Almonds are part of the apple family.</p>
              <audio controls src=""blob:https://charburnham.github.io/4fc24533-58dc-4199-9e19-e24305dfe5ae"" class=""playback-audio""></audio>
            </div>
          ","1","html-button-response","152","435457","0.0-46.0-2.0","ha77v84840","","","","","","queued","9F","Almonds are part of the apple family.","false","sentence_review","","1","ha77v84840_9F_audio.webm","accepted","ha77v84840_9F_audio.webm"
"2246","
          <div class=""recording-instructions-box"">
            <h2>Read the sentence aloud</h2>
            <p>Take a moment to get ready. When you are ready to begin, click the button below to start recording.</p>
            <p class=""sentence-stimulus"">Chameleons' tongues can stretch to four times their body length.</p>
          </div>
        ","0","html-button-response","153","437705","0.0-47.0-0.0","ha77v84840","","","","","","","42F","Chameleons' tongues can stretch to four times their body length.","false","sentence_ready","","","","",""
"5296","
          <div class=""recording-instructions-box"">
            <h2>Recording in progress</h2>
            <p>Please read the sentence naturally, then click the button when you are done.</p>
            <p class=""sentence-stimulus"">Chameleons' tongues can stretch to four times their body length.</p>
          </div>
        ","null","html-audio-response","154","443059","0.0-47.0-1.0","ha77v84840","","","","","1","","42F","Chameleons' tongues can stretch to four times their body length.","false","sentence_recording","blob:https://charburnham.github.io/b6ec96ed-2be1-45e7-a676-69419b019ef1","1","ha77v84840_42F_audio.webm","",""
"901","
            <div class=""recording-instructions-box"">
              <h2>Review your recording</h2>
              <p>Listen to your recording for this sentence. If you want, you can record it again before moving on.</p>
              <p class=""sentence-stimulus"">Chameleons' tongues can stretch to four times their body length.</p>
              <audio controls src=""blob:https://charburnham.github.io/b6ec96ed-2be1-45e7-a676-69419b019ef1"" class=""playback-audio""></audio>
            </div>
          ","1","html-button-response","155","443961","0.0-47.0-2.0","ha77v84840","","","","","","queued","42F","Chameleons' tongues can stretch to four times their body length.","false","sentence_review","","1","ha77v84840_42F_audio.webm","accepted","ha77v84840_42F_audio.webm"
"2326","
          <div class=""recording-instructions-box"">
            <h2>Read the sentence aloud</h2>
            <p>Take a moment to get ready. When you are ready to begin, click the button below to start recording.</p>
            <p class=""sentence-stimulus"">Chameleons' tongues can stretch to two times their body length.</p>
          </div>
        ","0","html-button-response","156","446289","0.0-48.0-0.0","ha77v84840","","","","","","","42T","Chameleons' tongues can stretch to two times their body length.","true","sentence_ready","","","","",""
"3498","
          <div class=""recording-instructions-box"">
            <h2>Recording in progress</h2>
            <p>Please read the sentence naturally, then click the button when you are done.</p>
            <p class=""sentence-stimulus"">Chameleons' tongues can stretch to two times their body length.</p>
          </div>
        ","null","html-audio-response","157","449850","0.0-48.0-1.0","ha77v84840","","","","","1","","42T","Chameleons' tongues can stretch to two times their body length.","true","sentence_recording","blob:https://charburnham.github.io/1db64ba1-5209-45c7-a549-fcd4ad809909","1","ha77v84840_42T_audio.webm","",""
"638","
            <div class=""recording-instructions-box"">
              <h2>Review your recording</h2>
              <p>Listen to your recording for this sentence. If you want, you can record it again before moving on.</p>
              <p class=""sentence-stimulus"">Chameleons' tongues can stretch to two times their body length.</p>
              <audio controls src=""blob:https://charburnham.github.io/1db64ba1-5209-45c7-a549-fcd4ad809909"" class=""playback-audio""></audio>
            </div>
          ","0","html-button-response","158","450489","0.0-48.0-2.0","ha77v84840","","","","","","not_uploaded_rerecorded","42T","Chameleons' tongues can stretch to two times their body length.","true","sentence_review","","1","ha77v84840_42T_audio.webm","rerecord","null"
"10399","
          <div class=""recording-instructions-box"">
            <h2>Read the sentence aloud</h2>
