"rt","stimulus","response","trial_type","trial_index","time_elapsed","internal_node_id","subject_id","microphone_confirmed","device_id","view_history","trial_type_label","estimated_stimulus_onset","audio_upload","stimulus_code","sentence","condition","trial_stage","audio_url","recording_attempt","recording_filename","review_decision","saved_audio_file"
"2530","
    <div class=""consent"">
      <h2>Consent Form</h2>
      <p>If you agree to participate in this research, please click ""Continue"".</p>
    </div>
  ","0","html-button-response","0","2580","0.0-0.0","2j7bwre4ol","","","","","","","","","","","","","","",""
"4100410","
    <div class=""instructions"">
      <h2>Instructions</h2>
      <p>In this experiment, you will see a sentence on the screen.</p>
      <p>Your task is to record yourself reading that sentence aloud using your microphone.</p>
      <p>For each sentence, you'll click <strong>Start Recording</strong> when you're ready, rather than having the recording begin right away.</p>
      <p>After each recording, you can listen back and either continue to the next sentence or re-record.</p>
      <p>Click ""Next"" to continue to the microphone test.</p>
    </div>
  ","0","html-button-response","1","4102995","0.0-1.0","2j7bwre4ol","","","","","","","","","","","","","","",""
"","","","html-keyboard-response","2","4117574","0.0-2.0","2j7bwre4ol","yes","","","","","","","","","","","","","",""
"1964","
    <div class=""content"">
      <h2>Microphone Setup</h2>
      <div class=""instruction-box"">
        <p>Before starting the experiment, we need to set up your microphone.</p>
        <p>On the next page:</p>
        <ul>
          <li>Your browser will ask for microphone permission - please click <strong>Allow</strong></li>
          <li>You'll see a dropdown menu with available microphones</li>
          <li>Select the microphone you want to use</li>
          <li>Click ""Use this microphone"" to continue</li>
        </ul>
      </div>
    </div>
  ","0","html-button-response","3","4119541","0.0-3.0","2j7bwre4ol","","","","","","","","","","","","","","",""
"","","","initialize-microphone","4","4126458","0.0-4.0","2j7bwre4ol","","90d3b9c1d861e8bf27414a79be1f9249d45f631b38b68cf7e0a919b245eb59bf","","","","","","","","","","","","",""
"2951","","","instructions","5","4129410","0.0-5.0","2j7bwre4ol","","","[{""page_index"":0,""viewing_time"":2950}]","","","","","","","","","","","",""
"2696","
        <div class=""content"">
          <div class=""recording-box"">
            <h3>Microphone Test</h3>
            <p>Take a moment to get ready.</p>
            <p>Click the button below when you want to begin the test recording.</p>
          </div>
        </div>
      ","0","html-button-response","6","4132108","0.0-6.0","2j7bwre4ol","","","","microphone_test_ready","","","","","","","","","","",""
"null","
          <div class=""content"">
          <div class=""recording-box"">
          <h3>Recording in Progress...</h3>
          <p>Speak naturally, for example: <em>""Testing, 1, 2, 3.""</em></p>
      </div>
    ","2j7bwre4ol_microphone_test_audio.webm","html-audio-response","7","4146006","0.0-7.0","2j7bwre4ol","","","","microphone_test","7","queued","","","","","","","","",""
"4013","
    <div class=""content"">
      <div class=""begin-box"">
        <h2>Let's Begin!</h2>
        <p>Now the microphone test is done and the main part begins.</p>
        <p>Each sentence will appear first, and you'll click <strong>Start Recording</strong> when you're ready to speak.</p>
        <p>After each sentence, you'll be able to listen to your recording and decide whether to keep it or record again.</p>
        <p>Click ""Continue"" to start recording the sentences.</p>
      </div>
    </div>
  ","0","html-button-response","8","4150023","0.0-8.0","2j7bwre4ol","","","","","","","","","","","","","","",""
"3732","
          <div class=""recording-instructions-box"">
            <h2>Read the sentence aloud</h2>
            <p>Take a moment to get ready. When you are ready to begin, click the button below to start recording.</p>
            <p class=""sentence-stimulus"">Delaware never ratified the 18th Amendment.</p>
          </div>
        ","0","html-button-response","9","4153757","0.0-9.0-0.0","2j7bwre4ol","","","","","","","30F","Delaware never ratified the 18th Amendment.","false","sentence_ready","","","","",""
"5560","
          <div class=""recording-instructions-box"">
            <h2>Recording in progress</h2>
            <p>Please read the sentence naturally, then click the button when you are done.</p>
            <p class=""sentence-stimulus"">Delaware never ratified the 18th Amendment.</p>
          </div>
        ","null","html-audio-response","10","4159390","0.0-9.0-1.0","2j7bwre4ol","","","","","6","","30F","Delaware never ratified the 18th Amendment.","false","sentence_recording","blob:https://charburnham.github.io/985cdfa0-0df8-4e4b-9314-218bef7ce731","1","2j7bwre4ol_30F_audio.webm","",""
"12764","
            <div class=""recording-instructions-box"">
              <h2>Review your recording</h2>
              <p>Listen to your recording for this sentence. If you want, you can record it again before moving on.</p>
              <p class=""sentence-stimulus"">Delaware never ratified the 18th Amendment.</p>
              <audio controls src=""blob:https://charburnham.github.io/985cdfa0-0df8-4e4b-9314-218bef7ce731"" class=""playback-audio""></audio>
            </div>
          ","0","html-button-response","11","4172158","0.0-9.0-2.0","2j7bwre4ol","","","","","","not_uploaded_rerecorded","30F","Delaware never ratified the 18th Amendment.","false","sentence_review","","1","2j7bwre4ol_30F_audio.webm","rerecord","null"
"1572","
          <div class=""recording-instructions-box"">
            <h2>Read the sentence aloud</h2>
            <p>Take a moment to get ready. When you are ready to begin, click the button below to start recording.</p>
            <p class=""sentence-stimulus"">Delaware never ratified the 18th Amendment.</p>
          </div>
        ","0","html-button-response","12","4173732","0.0-9.1-0.1","2j7bwre4ol","","","","","","","30F","Delaware never ratified the 18th Amendment.","false","sentence_ready","","","","",""
"6085","
          <div class=""recording-instructions-box"">
            <h2>Recording in progress</h2>
            <p>Please read the sentence naturally, then click the button when you are done.</p>
            <p class=""sentence-stimulus"">Delaware never ratified the 18th Amendment.</p>
          </div>
        ","null","html-audio-response","13","4179881","0.0-9.1-1.1","2j7bwre4ol","","","","","3","","30F","Delaware never ratified the 18th Amendment.","false","sentence_recording","blob:https://charburnham.github.io/9d858bbd-f9c5-4c2a-acda-4f123c52c836","2","2j7bwre4ol_30F_audio.webm","",""
"7691","
            <div class=""recording-instructions-box"">
              <h2>Review your recording</h2>
              <p>Listen to your recording for this sentence. If you want, you can record it again before moving on.</p>
              <p class=""sentence-stimulus"">Delaware never ratified the 18th Amendment.</p>
              <audio controls src=""blob:https://charburnham.github.io/9d858bbd-f9c5-4c2a-acda-4f123c52c836"" class=""playback-audio""></audio>
            </div>
          ","1","html-button-response","14","4187575","0.0-9.1-2.1","2j7bwre4ol","","","","","","queued","30F","Delaware never ratified the 18th Amendment.","false","sentence_review","","2","2j7bwre4ol_30F_audio.webm","accepted","2j7bwre4ol_30F_audio.webm"
"1710","
          <div class=""recording-instructions-box"">
            <h2>Read the sentence aloud</h2>
            <p>Take a moment to get ready. When you are ready to begin, click the button below to start recording.</p>
            <p class=""sentence-stimulus"">The blue whale is the second largest animal that has ever lived on earth.</p>
          </div>
        ","0","html-button-response","15","4189289","0.0-10.0-0.0","2j7bwre4ol","","","","","","","F16F","The blue whale is the second largest animal that has ever lived on earth.","false","sentence_ready","","","","",""
"6574","
          <div class=""recording-instructions-box"">
            <h2>Recording in progress</h2>
            <p>Please read the sentence naturally, then click the button when you are done.</p>
            <p class=""sentence-stimulus"">The blue whale is the second largest animal that has ever lived on earth.</p>
          </div>
        ","null","html-audio-response","16","4195934","0.0-10.0-1.0","2j7bwre4ol","","","","","8","","F16F","The blue whale is the second largest animal that has ever lived on earth.","false","sentence_recording","blob:https://charburnham.github.io/4b054e63-708d-43fa-8c51-feeba3ca5153","1","2j7bwre4ol_F16F_audio.webm","",""
"14385","
            <div class=""recording-instructions-box"">
              <h2>Review your recording</h2>
              <p>Listen to your recording for this sentence. If you want, you can record it again before moving on.</p>
              <p class=""sentence-stimulus"">The blue whale is the second largest animal that has ever lived on earth.</p>
              <audio controls src=""blob:https://charburnham.github.io/4b054e63-708d-43fa-8c51-feeba3ca5153"" class=""playback-audio""></audio>
            </div>
          ","1","html-button-response","17","4210321","0.0-10.0-2.0","2j7bwre4ol","","","","","","queued","F16F","The blue whale is the second largest animal that has ever lived on earth.","false","sentence_review","","1","2j7bwre4ol_F16F_audio.webm","accepted","2j7bwre4ol_F16F_audio.webm"
"1229","
          <div class=""recording-instructions-box"">
            <h2>Read the sentence aloud</h2>
            <p>Take a moment to get ready. When you are ready to begin, click the button below to start recording.</p>
            <p class=""sentence-stimulus"">Four U.S. presidents have been awarded honorary knighthood.</p>
          </div>
        ","0","html-button-response","18","4211553","0.0-11.0-0.0","2j7bwre4ol","","","","","","","41F","Four U.S. presidents have been awarded honorary knighthood.","false","sentence_ready","","","","",""
"5935","
          <div class=""recording-instructions-box"">
            <h2>Recording in progress</h2>
            <p>Please read the sentence naturally, then click the button when you are done.</p>
            <p class=""sentence-stimulus"">Four U.S. presidents have been awarded honorary knighthood.</p>
          </div>
        ","null","html-audio-response","19","4217558","0.0-11.0-1.0","2j7bwre4ol","","","","","13","","41F","Four U.S. presidents have been awarded honorary knighthood.","false","sentence_recording","blob:https://charburnham.github.io/92eef0a3-f7f0-4cb7-8643-f1a6d8f57a19","1","2j7bwre4ol_41F_audio.webm","",""
"20044","
            <div class=""recording-instructions-box"">
              <h2>Review your recording</h2>
              <p>Listen to your recording for this sentence. If you want, you can record it again before moving on.</p>
              <p class=""sentence-stimulus"">Four U.S. presidents have been awarded honorary knighthood.</p>
              <audio controls src=""blob:https://charburnham.github.io/92eef0a3-f7f0-4cb7-8643-f1a6d8f57a19"" class=""playback-audio""></audio>
            </div>
          ","1","html-button-response","20","4237605","0.0-11.0-2.0","2j7bwre4ol","","","","","","queued","41F","Four U.S. presidents have been awarded honorary knighthood.","false","sentence_review","","1","2j7bwre4ol_41F_audio.webm","accepted","2j7bwre4ol_41F_audio.webm"
"2013","
          <div class=""recording-instructions-box"">
            <h2>Read the sentence aloud</h2>
            <p>Take a moment to get ready. When you are ready to begin, click the button below to start recording.</p>
            <p class=""sentence-stimulus"">A starfish can release approximately 2.5 million eggs at once.</p>
          </div>
        ","0","html-button-response","21","4239622","0.0-12.0-0.0","2j7bwre4ol","","","","","","","24T","A starfish can release approximately 2.5 million eggs at once.","true","sentence_ready","","","","",""
"7149","
          <div class=""recording-instructions-box"">
            <h2>Recording in progress</h2>
            <p>Please read the sentence naturally, then click the button when you are done.</p>
            <p class=""sentence-stimulus"">A starfish can release approximately 2.5 million eggs at once.</p>
          </div>
        ","null","html-audio-response","22","4246835","0.0-12.0-1.0","2j7bwre4ol","","","","","8","","24T","A starfish can release approximately 2.5 million eggs at once.","true","sentence_recording","blob:https://charburnham.github.io/67b4f03e-7d00-49b5-ac6b-f59fcf6ee193","1","2j7bwre4ol_24T_audio.webm","",""
"9148","
            <div class=""recording-instructions-box"">
              <h2>Review your recording</h2>
              <p>Listen to your recording for this sentence. If you want, you can record it again before moving on.</p>
              <p class=""sentence-stimulus"">A starfish can release approximately 2.5 million eggs at once.</p>
              <audio controls src=""blob:https://charburnham.github.io/67b4f03e-7d00-49b5-ac6b-f59fcf6ee193"" class=""playback-audio""></audio>
            </div>
          ","1","html-button-response","23","4255984","0.0-12.0-2.0","2j7bwre4ol","","","","","","queued","24T","A starfish can release approximately 2.5 million eggs at once.","true","sentence_review","","1","2j7bwre4ol_24T_audio.webm","accepted","2j7bwre4ol_24T_audio.webm"
"2496","
          <div class=""recording-instructions-box"">
            <h2>Read the sentence aloud</h2>
            <p>Take a moment to get ready. When you are ready to begin, click the button below to start recording.</p>
            <p class=""sentence-stimulus"">Honduras currently has the highest murder rate of any country in the world.</p>
          </div>
        ","0","html-button-response","24","4258483","0.0-13.0-0.0","2j7bwre4ol","","","","","","","F18T","Honduras currently has the highest murder rate of any country in the world.","true","sentence_ready","","","","",""
"7650","
          <div class=""recording-instructions-box"">
            <h2>Recording in progress</h2>
            <p>Please read the sentence naturally, then click the button when you are done.</p>
            <p class=""sentence-stimulus"">Honduras currently has the highest murder rate of any country in the world.</p>
          </div>
        ","null","html-audio-response","25","4266201","0.0-13.0-1.0","2j7bwre4ol","","","","","14","","F18T","Honduras currently has the highest murder rate of any country in the world.","true","sentence_recording","blob:https://charburnham.github.io/0bb4edd0-b064-495b-b6b3-c2c24606fa9f","1","2j7bwre4ol_F18T_audio.webm","",""
"18766","
            <div class=""recording-instructions-box"">
              <h2>Review your recording</h2>
              <p>Listen to your recording for this sentence. If you want, you can record it again before moving on.</p>
              <p class=""sentence-stimulus"">Honduras currently has the highest murder rate of any country in the world.</p>
              <audio controls src=""blob:https://charburnham.github.io/0bb4edd0-b064-495b-b6b3-c2c24606fa9f"" class=""playback-audio""></audio>
            </div>
          ","1","html-button-response","26","4284969","0.0-13.0-2.0","2j7bwre4ol","","","","","","queued","F18T","Honduras currently has the highest murder rate of any country in the world.","true","sentence_review","","1","2j7bwre4ol_F18T_audio.webm","accepted","2j7bwre4ol_F18T_audio.webm"
"1328","
          <div class=""recording-instructions-box"">
            <h2>Read the sentence aloud</h2>
            <p>Take a moment to get ready. When you are ready to begin, click the button below to start recording.</p>
            <p class=""sentence-stimulus"">The first VCR was made in 1969.</p>
          </div>
        ","0","html-button-response","27","4286299","0.0-14.0-0.0","2j7bwre4ol","","","","","","","F14T","The first VCR was made in 1969.","true","sentence_ready","","","","",""
"5867","
          <div class=""recording-instructions-box"">
            <h2>Recording in progress</h2>
            <p>Please read the sentence naturally, then click the button when you are done.</p>
            <p class=""sentence-stimulus"">The first VCR was made in 1969.</p>
          </div>
        ","null","html-audio-response","28","4292233","0.0-14.0-1.0","2j7bwre4ol","","","","","9","","F14T","The first VCR was made in 1969.","true","sentence_recording","blob:https://charburnham.github.io/deea4117-6c23-4351-be90-fb308c5135dc","1","2j7bwre4ol_F14T_audio.webm","",""
"6913","
            <div class=""recording-instructions-box"">
              <h2>Review your recording</h2>
              <p>Listen to your recording for this sentence. If you want, you can record it again before moving on.</p>
              <p class=""sentence-stimulus"">The first VCR was made in 1969.</p>
              <audio controls src=""blob:https://charburnham.github.io/deea4117-6c23-4351-be90-fb308c5135dc"" class=""playback-audio""></audio>
            </div>
          ","1","html-button-response","29","4299148","0.0-14.0-2.0","2j7bwre4ol","","","","","","queued","F14T","The first VCR was made in 1969.","true","sentence_review","","1","2j7bwre4ol_F14T_audio.webm","accepted","2j7bwre4ol_F14T_audio.webm"
"3478","
          <div class=""recording-instructions-box"">
            <h2>Read the sentence aloud</h2>
            <p>Take a moment to get ready. When you are ready to begin, click the button below to start recording.</p>
            <p class=""sentence-stimulus"">Coca Cola would be green without the added food coloring.</p>
          </div>
        ","0","html-button-response","30","4302628","0.0-15.0-0.0","2j7bwre4ol","","","","","","","F17F","Coca Cola would be green without the added food coloring.","false","sentence_ready","","","","",""
"5286","
          <div class=""recording-instructions-box"">
            <h2>Recording in progress</h2>
            <p>Please read the sentence naturally, then click the button when you are done.</p>
            <p class=""sentence-stimulus"">Coca Cola would be green without the added food coloring.</p>
          </div>
        ","null","html-audio-response","31","4307985","0.0-15.0-1.0","2j7bwre4ol","","","","","12","","F17F","Coca Cola would be green without the added food coloring.","false","sentence_recording","blob:https://charburnham.github.io/19f7ee2c-731d-4007-a34c-2f42d55d84a0","1","2j7bwre4ol_F17F_audio.webm","",""
"6807","
            <div class=""recording-instructions-box"">
              <h2>Review your recording</h2>
              <p>Listen to your recording for this sentence. If you want, you can record it again before moving on.</p>
              <p class=""sentence-stimulus"">Coca Cola would be green without the added food coloring.</p>
              <audio controls src=""blob:https://charburnham.github.io/19f7ee2c-731d-4007-a34c-2f42d55d84a0"" class=""playback-audio""></audio>
            </div>
          ","1","html-button-response","32","4314793","0.0-15.0-2.0","2j7bwre4ol","","","","","","queued","F17F","Coca Cola would be green without the added food coloring.","false","sentence_review","","1","2j7bwre4ol_F17F_audio.webm","accepted","2j7bwre4ol_F17F_audio.webm"
"1135","
          <div class=""recording-instructions-box"">
            <h2>Read the sentence aloud</h2>
            <p>Take a moment to get ready. When you are ready to begin, click the button below to start recording.</p>
            <p class=""sentence-stimulus"">James Madison was the shortest U.S. president.</p>
          </div>
        ","0","html-button-response","33","4315930","0.0-16.0-0.0","2j7bwre4ol","","","","","","","40T","James Madison was the shortest U.S. president.","true","sentence_ready","","","","",""
"4918","
          <div class=""recording-instructions-box"">
            <h2>Recording in progress</h2>
            <p>Please read the sentence naturally, then click the button when you are done.</p>
            <p class=""sentence-stimulus"">James Madison was the shortest U.S. president.</p>
          </div>
        ","null","html-audio-response","34","4320916","0.0-16.0-1.0","2j7bwre4ol","","","","","11","","40T","James Madison was the shortest U.S. president.","true","sentence_recording","blob:https://charburnham.github.io/d6522c94-ecae-445f-aede-c4372b511517","1","2j7bwre4ol_40T_audio.webm","",""
"6814","
            <div class=""recording-instructions-box"">
              <h2>Review your recording</h2>
              <p>Listen to your recording for this sentence. If you want, you can record it again before moving on.</p>
              <p class=""sentence-stimulus"">James Madison was the shortest U.S. president.</p>
              <audio controls src=""blob:https://charburnham.github.io/d6522c94-ecae-445f-aede-c4372b511517"" class=""playback-audio""></audio>
            </div>
          ","1","html-button-response","35","4327732","0.0-16.0-2.0","2j7bwre4ol","","","","","","queued","40T","James Madison was the shortest U.S. president.","true","sentence_review","","1","2j7bwre4ol_40T_audio.webm","accepted","2j7bwre4ol_40T_audio.webm"
"1400","
          <div class=""recording-instructions-box"">
            <h2>Read the sentence aloud</h2>
            <p>Take a moment to get ready. When you are ready to begin, click the button below to start recording.</p>
            <p class=""sentence-stimulus"">An iceberg contains significantly more total heat energy than a burning match.</p>
          </div>
        ","0","html-button-response","36","4329134","0.0-17.0-0.0","2j7bwre4ol","","","","","","","1T","An iceberg contains significantly more total heat energy than a burning match.","true","sentence_ready","","","","",""
"7100","
          <div class=""recording-instructions-box"">
            <h2>Recording in progress</h2>
            <p>Please read the sentence naturally, then click the button when you are done.</p>
            <p class=""sentence-stimulus"">An iceberg contains significantly more total heat energy than a burning match.</p>
          </div>
        ","null","html-audio-response","37","4336300","0.0-17.0-1.0","2j7bwre4ol","","","","","1","","1T","An iceberg contains significantly more total heat energy than a burning match.","true","sentence_recording","blob:https://charburnham.github.io/071961ae-d395-4eac-99f9-b4186203bf46","1","2j7bwre4ol_1T_audio.webm","",""
"7930","
            <div class=""recording-instructions-box"">
              <h2>Review your recording</h2>
              <p>Listen to your recording for this sentence. If you want, you can record it again before moving on.</p>
              <p class=""sentence-stimulus"">An iceberg contains significantly more total heat energy than a burning match.</p>
              <audio controls src=""blob:https://charburnham.github.io/071961ae-d395-4eac-99f9-b4186203bf46"" class=""playback-audio""></audio>
            </div>
          ","1","html-button-response","38","4344230","0.0-17.0-2.0","2j7bwre4ol","","","","","","queued","1T","An iceberg contains significantly more total heat energy than a burning match.","true","sentence_review","","1","2j7bwre4ol_1T_audio.webm","accepted","2j7bwre4ol_1T_audio.webm"
"1063","
          <div class=""recording-instructions-box"">
            <h2>Read the sentence aloud</h2>
            <p>Take a moment to get ready. When you are ready to begin, click the button below to start recording.</p>
            <p class=""sentence-stimulus"">Women blink more frequently than do men.</p>
          </div>
        ","0","html-button-response","39","4345295","0.0-18.0-0.0","2j7bwre4ol","","","","","","","F19T","Women blink more frequently than do men.","true","sentence_ready","","","","",""
"5219","
          <div class=""recording-instructions-box"">
            <h2>Recording in progress</h2>
            <p>Please read the sentence naturally, then click the button when you are done.</p>
            <p class=""sentence-stimulus"">Women blink more frequently than do men.</p>
          </div>
        ","null","html-audio-response","40","4350582","0.0-18.0-1.0","2j7bwre4ol","","","","","6","","F19T","Women blink more frequently than do men.","true","sentence_recording","blob:https://charburnham.github.io/1066d78e-7b17-450a-b30b-c50194019108","1","2j7bwre4ol_F19T_audio.webm","",""
"6831","
            <div class=""recording-instructions-box"">
              <h2>Review your recording</h2>
              <p>Listen to your recording for this sentence. If you want, you can record it again before moving on.</p>
              <p class=""sentence-stimulus"">Women blink more frequently than do men.</p>
              <audio controls src=""blob:https://charburnham.github.io/1066d78e-7b17-450a-b30b-c50194019108"" class=""playback-audio""></audio>
            </div>
          ","1","html-button-response","41","4357414","0.0-18.0-2.0","2j7bwre4ol","","","","","","queued","F19T","Women blink more frequently than do men.","true","sentence_review","","1","2j7bwre4ol_F19T_audio.webm","accepted","2j7bwre4ol_F19T_audio.webm"
"1179","
          <div class=""recording-instructions-box"">
            <h2>Read the sentence aloud</h2>
            <p>Take a moment to get ready. When you are ready to begin, click the button below to start recording.</p>
            <p class=""sentence-stimulus"">Tennis was invented before golf.</p>
          </div>
        ","0","html-button-response","42","4358596","0.0-19.0-0.0","2j7bwre4ol","","","","","","","27T","Tennis was invented before golf.","true","sentence_ready","","","","",""
"4080","
          <div class=""recording-instructions-box"">
            <h2>Recording in progress</h2>
            <p>Please read the sentence naturally, then click the button when you are done.</p>
            <p class=""sentence-stimulus"">Tennis was invented before golf.</p>
          </div>
        ","null","html-audio-response","43","4362743","0.0-19.0-1.0","2j7bwre4ol","","","","","5","","27T","Tennis was invented before golf.","true","sentence_recording","blob:https://charburnham.github.io/81984b66-e39e-4cf4-a28d-52c967acd424","1","2j7bwre4ol_27T_audio.webm","",""
"4818","
            <div class=""recording-instructions-box"">
              <h2>Review your recording</h2>
              <p>Listen to your recording for this sentence. If you want, you can record it again before moving on.</p>
              <p class=""sentence-stimulus"">Tennis was invented before golf.</p>
              <audio controls src=""blob:https://charburnham.github.io/81984b66-e39e-4cf4-a28d-52c967acd424"" class=""playback-audio""></audio>
            </div>
          ","1","html-button-response","44","4367563","0.0-19.0-2.0","2j7bwre4ol","","","","","","queued","27T","Tennis was invented before golf.","true","sentence_review","","1","2j7bwre4ol_27T_audio.webm","accepted","2j7bwre4ol_27T_audio.webm"
"1112","
          <div class=""recording-instructions-box"">
            <h2>Read the sentence aloud</h2>
            <p>Take a moment to get ready. When you are ready to begin, click the button below to start recording.</p>
            <p class=""sentence-stimulus"">A male kangaroo is called a boomer.</p>
          </div>
        ","0","html-button-response","45","4368678","0.0-20.0-0.0","2j7bwre4ol","","","","","","","16T","A male kangaroo is called a boomer.","true","sentence_ready","","","","",""
"4416","
          <div class=""recording-instructions-box"">
            <h2>Recording in progress</h2>
            <p>Please read the sentence naturally, then click the button when you are done.</p>
            <p class=""sentence-stimulus"">A male kangaroo is called a boomer.</p>
          </div>
        ","null","html-audio-response","46","4373162","0.0-20.0-1.0","2j7bwre4ol","","","","","9","","16T","A male kangaroo is called a boomer.","true","sentence_recording","blob:https://charburnham.github.io/51d575bc-ada8-4c69-8732-7eabada32019","1","2j7bwre4ol_16T_audio.webm","",""
"4850","
            <div class=""recording-instructions-box"">
              <h2>Review your recording</h2>
              <p>Listen to your recording for this sentence. If you want, you can record it again before moving on.</p>
              <p class=""sentence-stimulus"">A male kangaroo is called a boomer.</p>
              <audio controls src=""blob:https://charburnham.github.io/51d575bc-ada8-4c69-8732-7eabada32019"" class=""playback-audio""></audio>
            </div>
          ","1","html-button-response","47","4378013","0.0-20.0-2.0","2j7bwre4ol","","","","","","queued","16T","A male kangaroo is called a boomer.","true","sentence_review","","1","2j7bwre4ol_16T_audio.webm","accepted","2j7bwre4ol_16T_audio.webm"
"978","
          <div class=""recording-instructions-box"">
            <h2>Read the sentence aloud</h2>
            <p>Take a moment to get ready. When you are ready to begin, click the button below to start recording.</p>
            <p class=""sentence-stimulus"">Venus rotates clockwise.</p>
          </div>
        ","0","html-button-response","48","4378993","0.0-21.0-0.0","2j7bwre4ol","","","","","","","33T","Venus rotates clockwise.","true","sentence_ready","","","","",""
"3203","
          <div class=""recording-instructions-box"">
            <h2>Recording in progress</h2>
            <p>Please read the sentence naturally, then click the button when you are done.</p>
            <p class=""sentence-stimulus"">Venus rotates clockwise.</p>
          </div>
        ","null","html-audio-response","49","4382264","0.0-21.0-1.0","2j7bwre4ol","","","","","15","","33T","Venus rotates clockwise.","true","sentence_recording","blob:https://charburnham.github.io/ca03add7-fe57-4de0-b418-5c4098aeaa5f","1","2j7bwre4ol_33T_audio.webm","",""
"6480","
            <div class=""recording-instructions-box"">
              <h2>Review your recording</h2>
              <p>Listen to your recording for this sentence. If you want, you can record it again before moving on.</p>
              <p class=""sentence-stimulus"">Venus rotates clockwise.</p>
              <audio controls src=""blob:https://charburnham.github.io/ca03add7-fe57-4de0-b418-5c4098aeaa5f"" class=""playback-audio""></audio>
            </div>
          ","1","html-button-response","50","4388746","0.0-21.0-2.0","2j7bwre4ol","","","","","","queued","33T","Venus rotates clockwise.","true","sentence_review","","1","2j7bwre4ol_33T_audio.webm","accepted","2j7bwre4ol_33T_audio.webm"
"1213","
          <div class=""recording-instructions-box"">
            <h2>Read the sentence aloud</h2>
            <p>Take a moment to get ready. When you are ready to begin, click the button below to start recording.</p>
            <p class=""sentence-stimulus"">Camel's milk does not curdle.</p>
          </div>
        ","0","html-button-response","51","4389961","0.0-22.0-0.0","2j7bwre4ol","","","","","","","7T","Camel's milk does not curdle.","true","sentence_ready","","","","",""
"3595","
          <div class=""recording-instructions-box"">
            <h2>Recording in progress</h2>
            <p>Please read the sentence naturally, then click the button when you are done.</p>
            <p class=""sentence-stimulus"">Camel's milk does not curdle.</p>
          </div>
        ","null","html-audio-response","52","4393629","0.0-22.0-1.0","2j7bwre4ol","","","","","2","","7T","Camel's milk does not curdle.","true","sentence_recording","blob:https://charburnham.github.io/1fc7c32d-7186-4ef9-8e75-87bf4a136f5b","1","2j7bwre4ol_7T_audio.webm","",""
"4529","
            <div class=""recording-instructions-box"">
              <h2>Review your recording</h2>
              <p>Listen to your recording for this sentence. If you want, you can record it again before moving on.</p>
              <p class=""sentence-stimulus"">Camel's milk does not curdle.</p>
              <audio controls src=""blob:https://charburnham.github.io/1fc7c32d-7186-4ef9-8e75-87bf4a136f5b"" class=""playback-audio""></audio>
            </div>
          ","1","html-button-response","53","4398160","0.0-22.0-2.0","2j7bwre4ol","","","","","","queued","7T","Camel's milk does not curdle.","true","sentence_review","","1","2j7bwre4ol_7T_audio.webm","accepted","2j7bwre4ol_7T_audio.webm"
"989","
          <div class=""recording-instructions-box"">
            <h2>Read the sentence aloud</h2>
            <p>Take a moment to get ready. When you are ready to begin, click the button below to start recording.</p>
            <p class=""sentence-stimulus"">A crocodile cannot stick out its tongue.</p>
          </div>
        ","0","html-button-response","54","4399151","0.0-23.0-0.0","2j7bwre4ol","","","","","","","F4F","A crocodile cannot stick out its tongue.","false","sentence_ready","","","","",""
"3665","
          <div class=""recording-instructions-box"">
            <h2>Recording in progress</h2>
            <p>Please read the sentence naturally, then click the button when you are done.</p>
            <p class=""sentence-stimulus"">A crocodile cannot stick out its tongue.</p>
          </div>
        ","null","html-audio-response","55","4402876","0.0-23.0-1.0","2j7bwre4ol","","","","","4","","F4F","A crocodile cannot stick out its tongue.","false","sentence_recording","blob:https://charburnham.github.io/70608410-2bcd-4990-9bd7-aff784145dd1","1","2j7bwre4ol_F4F_audio.webm","",""
"5349","
            <div class=""recording-instructions-box"">
              <h2>Review your recording</h2>
              <p>Listen to your recording for this sentence. If you want, you can record it again before moving on.</p>
              <p class=""sentence-stimulus"">A crocodile cannot stick out its tongue.</p>
              <audio controls src=""blob:https://charburnham.github.io/70608410-2bcd-4990-9bd7-aff784145dd1"" class=""playback-audio""></audio>
            </div>
          ","1","html-button-response","56","4408226","0.0-23.0-2.0","2j7bwre4ol","","","","","","queued","F4F","A crocodile cannot stick out its tongue.","false","sentence_review","","1","2j7bwre4ol_F4F_audio.webm","accepted","2j7bwre4ol_F4F_audio.webm"
"948","
          <div class=""recording-instructions-box"">
            <h2>Read the sentence aloud</h2>
            <p>Take a moment to get ready. When you are ready to begin, click the button below to start recording.</p>
            <p class=""sentence-stimulus"">Golf was invented before tennis.</p>
          </div>
        ","0","html-button-response","57","4409176","0.0-24.0-0.0","2j7bwre4ol","","","","","","","27F","Golf was invented before tennis.","false","sentence_ready","","","","",""
"3783","
          <div class=""recording-instructions-box"">
            <h2>Recording in progress</h2>
            <p>Please read the sentence naturally, then click the button when you are done.</p>
            <p class=""sentence-stimulus"">Golf was invented before tennis.</p>
          </div>
        ","null","html-audio-response","58","4413027","0.0-24.0-1.0","2j7bwre4ol","","","","","6","","27F","Golf was invented before tennis.","false","sentence_recording","blob:https://charburnham.github.io/ea3f90a2-e675-4ea0-859b-8b6d299d7241","1","2j7bwre4ol_27F_audio.webm","",""
"4949","
            <div class=""recording-instructions-box"">
              <h2>Review your recording</h2>
              <p>Listen to your recording for this sentence. If you want, you can record it again before moving on.</p>
              <p class=""sentence-stimulus"">Golf was invented before tennis.</p>
              <audio controls src=""blob:https://charburnham.github.io/ea3f90a2-e675-4ea0-859b-8b6d299d7241"" class=""playback-audio""></audio>
            </div>
          ","1","html-button-response","59","4417976","0.0-24.0-2.0","2j7bwre4ol","","","","","","queued","27F","Golf was invented before tennis.","false","sentence_review","","1","2j7bwre4ol_27F_audio.webm","accepted","2j7bwre4ol_27F_audio.webm"
"932","
          <div class=""recording-instructions-box"">
            <h2>Read the sentence aloud</h2>
            <p>Take a moment to get ready. When you are ready to begin, click the button below to start recording.</p>
            <p class=""sentence-stimulus"">Fourteen U.S. presidents have been only children.</p>
          </div>
        ","0","html-button-response","60","4418910","0.0-25.0-0.0","2j7bwre4ol","","","","","","","10F","Fourteen U.S. presidents have been only children.","false","sentence_ready","","","","",""
"4100","
          <div class=""recording-instructions-box"">
            <h2>Recording in progress</h2>
            <p>Please read the sentence naturally, then click the button when you are done.</p>
            <p class=""sentence-stimulus"">Fourteen U.S. presidents have been only children.</p>
          </div>
        ","null","html-audio-response","61","4423076","0.0-25.0-1.0","2j7bwre4ol","","","","","9","","10F","Fourteen U.S. presidents have been only children.","false","sentence_recording","blob:https://charburnham.github.io/c6eee472-f203-4291-8645-b83786c4bd32","1","2j7bwre4ol_10F_audio.webm","",""
"5149","
            <div class=""recording-instructions-box"">
              <h2>Review your recording</h2>
              <p>Listen to your recording for this sentence. If you want, you can record it again before moving on.</p>
              <p class=""sentence-stimulus"">Fourteen U.S. presidents have been only children.</p>
              <audio controls src=""blob:https://charburnham.github.io/c6eee472-f203-4291-8645-b83786c4bd32"" class=""playback-audio""></audio>
            </div>
          ","1","html-button-response","62","4428227","0.0-25.0-2.0","2j7bwre4ol","","","","","","queued","10F","Fourteen U.S. presidents have been only children.","false","sentence_review","","1","2j7bwre4ol_10F_audio.webm","accepted","2j7bwre4ol_10F_audio.webm"
"1447","
          <div class=""recording-instructions-box"">
            <h2>Read the sentence aloud</h2>
            <p>Take a moment to get ready. When you are ready to begin, click the button below to start recording.</p>
            <p class=""sentence-stimulus"">Your heart does not momentarily stop when you sneeze.</p>
          </div>
        ","0","html-button-response","63","4429676","0.0-26.0-0.0","2j7bwre4ol","","","","","","","F10T","Your heart does not momentarily stop when you sneeze.","true","sentence_ready","","","","",""
"4350","
          <div class=""recording-instructions-box"">
            <h2>Recording in progress</h2>
            <p>Please read the sentence naturally, then click the button when you are done.</p>
            <p class=""sentence-stimulus"">Your heart does not momentarily stop when you sneeze.</p>
          </div>
        ","null","html-audio-response","64","4434093","0.0-26.0-1.0","2j7bwre4ol","","","","","5","","F10T","Your heart does not momentarily stop when you sneeze.","true","sentence_recording","blob:https://charburnham.github.io/2e59bd8b-6947-4fe8-93ed-f564d8b7920f","1","2j7bwre4ol_F10T_audio.webm","",""
"6132","
            <div class=""recording-instructions-box"">
              <h2>Review your recording</h2>
              <p>Listen to your recording for this sentence. If you want, you can record it again before moving on.</p>
              <p class=""sentence-stimulus"">Your heart does not momentarily stop when you sneeze.</p>
              <audio controls src=""blob:https://charburnham.github.io/2e59bd8b-6947-4fe8-93ed-f564d8b7920f"" class=""playback-audio""></audio>
            </div>
          ","1","html-button-response","65","4440226","0.0-26.0-2.0","2j7bwre4ol","","","","","","queued","F10T","Your heart does not momentarily stop when you sneeze.","true","sentence_review","","1","2j7bwre4ol_F10T_audio.webm","accepted","2j7bwre4ol_F10T_audio.webm"
"1611","
          <div class=""recording-instructions-box"">
            <h2>Read the sentence aloud</h2>
            <p>Take a moment to get ready. When you are ready to begin, click the button below to start recording.</p>
            <p class=""sentence-stimulus"">Camel's milk curdles faster than cow's milk.</p>
          </div>
        ","0","html-button-response","66","4441839","0.0-27.0-0.0","2j7bwre4ol","","","","","","","7F","Camel's milk curdles faster than cow's milk.","false","sentence_ready","","","","",""
"4335","
          <div class=""recording-instructions-box"">
            <h2>Recording in progress</h2>
            <p>Please read the sentence naturally, then click the button when you are done.</p>
            <p class=""sentence-stimulus"">Camel's milk curdles faster than cow's milk.</p>
          </div>
        ","null","html-audio-response","67","4446244","0.0-27.0-1.0","2j7bwre4ol","","","","","11","","7F","Camel's milk curdles faster than cow's milk.","false","sentence_recording","blob:https://charburnham.github.io/26a654b2-d078-40d4-bd61-43f52a2b5051","1","2j7bwre4ol_7F_audio.webm","",""
"5764","
            <div class=""recording-instructions-box"">
              <h2>Review your recording</h2>
              <p>Listen to your recording for this sentence. If you want, you can record it again before moving on.</p>
              <p class=""sentence-stimulus"">Camel's milk curdles faster than cow's milk.</p>
              <audio controls src=""blob:https://charburnham.github.io/26a654b2-d078-40d4-bd61-43f52a2b5051"" class=""playback-audio""></audio>
            </div>
          ","1","html-button-response","68","4452010","0.0-27.0-2.0","2j7bwre4ol","","","","","","queued","7F","Camel's milk curdles faster than cow's milk.","false","sentence_review","","1","2j7bwre4ol_7F_audio.webm","accepted","2j7bwre4ol_7F_audio.webm"
"1288","
          <div class=""recording-instructions-box"">
            <h2>Read the sentence aloud</h2>
            <p>Take a moment to get ready. When you are ready to begin, click the button below to start recording.</p>
            <p class=""sentence-stimulus"">Kangaroos can lick their own eyes.</p>
          </div>
        ","0","html-button-response","69","4453300","0.0-28.0-0.0","2j7bwre4ol","","","","","","","19F","Kangaroos can lick their own eyes.","false","sentence_ready","","","","",""
"3715","
          <div class=""recording-instructions-box"">
            <h2>Recording in progress</h2>
            <p>Please read the sentence naturally, then click the button when you are done.</p>
            <p class=""sentence-stimulus"">Kangaroos can lick their own eyes.</p>
          </div>
        ","null","html-audio-response","70","4457075","0.0-28.0-1.0","2j7bwre4ol","","","","","1","","19F","Kangaroos can lick their own eyes.","false","sentence_recording","blob:https://charburnham.github.io/5462712c-2ca9-4a7d-bdc8-f0aa16a2ee85","1","2j7bwre4ol_19F_audio.webm","",""
"5198","
            <div class=""recording-instructions-box"">
              <h2>Review your recording</h2>
              <p>Listen to your recording for this sentence. If you want, you can record it again before moving on.</p>
              <p class=""sentence-stimulus"">Kangaroos can lick their own eyes.</p>
              <audio controls src=""blob:https://charburnham.github.io/5462712c-2ca9-4a7d-bdc8-f0aa16a2ee85"" class=""playback-audio""></audio>
            </div>
          ","1","html-button-response","71","4462275","0.0-28.0-2.0","2j7bwre4ol","","","","","","queued","19F","Kangaroos can lick their own eyes.","false","sentence_review","","1","2j7bwre4ol_19F_audio.webm","accepted","2j7bwre4ol_19F_audio.webm"
"1311","
          <div class=""recording-instructions-box"">
            <h2>Read the sentence aloud</h2>
            <p>Take a moment to get ready. When you are ready to begin, click the button below to start recording.</p>
            <p class=""sentence-stimulus"">The cheetah is the only cat that cannot retract its claws.</p>
          </div>
        ","0","html-button-response","72","4463587","0.0-29.0-0.0","2j7bwre4ol","","","","","","","43T","The cheetah is the only cat that cannot retract its claws.","true","sentence_ready","","","","",""
"5032","
          <div class=""recording-instructions-box"">
            <h2>Recording in progress</h2>
            <p>Please read the sentence naturally, then click the button when you are done.</p>
            <p class=""sentence-stimulus"">The cheetah is the only cat that cannot retract its claws.</p>
          </div>
        ","null","html-audio-response","73","4468690","0.0-29.0-1.0","2j7bwre4ol","","","","","11","","43T","The cheetah is the only cat that cannot retract its claws.","true","sentence_recording","blob:https://charburnham.github.io/97438a70-b922-4c78-b888-c5ee348403ec","1","2j7bwre4ol_43T_audio.webm","",""
"5784","
            <div class=""recording-instructions-box"">
              <h2>Review your recording</h2>
              <p>Listen to your recording for this sentence. If you want, you can record it again before moving on.</p>
              <p class=""sentence-stimulus"">The cheetah is the only cat that cannot retract its claws.</p>
              <audio controls src=""blob:https://charburnham.github.io/97438a70-b922-4c78-b888-c5ee348403ec"" class=""playback-audio""></audio>
            </div>
          ","1","html-button-response","74","4474475","0.0-29.0-2.0","2j7bwre4ol","","","","","","queued","43T","The cheetah is the only cat that cannot retract its claws.","true","sentence_review","","1","2j7bwre4ol_43T_audio.webm","accepted","2j7bwre4ol_43T_audio.webm"
"1284","
          <div class=""recording-instructions-box"">
            <h2>Read the sentence aloud</h2>
            <p>Take a moment to get ready. When you are ready to begin, click the button below to start recording.</p>
            <p class=""sentence-stimulus"">Adult beavers can hold their breath for up to 45 minutes under water.</p>
          </div>
        ","0","html-button-response","75","4475761","0.0-30.0-0.0","2j7bwre4ol","","","","","","","3F","Adult beavers can hold their breath for up to 45 minutes under water.","false","sentence_ready","","","","",""
"4801","
          <div class=""recording-instructions-box"">
            <h2>Recording in progress</h2>
            <p>Please read the sentence naturally, then click the button when you are done.</p>
            <p class=""sentence-stimulus"">Adult beavers can hold their breath for up to 45 minutes under water.</p>
          </div>
        ","null","html-audio-response","76","4480625","0.0-30.0-1.0","2j7bwre4ol","","","","","6","","3F","Adult beavers can hold their breath for up to 45 minutes under water.","false","sentence_recording","blob:https://charburnham.github.io/b4005daa-2f37-4e9e-85be-60d521244b51","1","2j7bwre4ol_3F_audio.webm","",""
"6014","
            <div class=""recording-instructions-box"">
              <h2>Review your recording</h2>
              <p>Listen to your recording for this sentence. If you want, you can record it again before moving on.</p>
              <p class=""sentence-stimulus"">Adult beavers can hold their breath for up to 45 minutes under water.</p>
              <audio controls src=""blob:https://charburnham.github.io/b4005daa-2f37-4e9e-85be-60d521244b51"" class=""playback-audio""></audio>
            </div>
          ","1","html-button-response","77","4486640","0.0-30.0-2.0","2j7bwre4ol","","","","","","queued","3F","Adult beavers can hold their breath for up to 45 minutes under water.","false","sentence_review","","1","2j7bwre4ol_3F_audio.webm","accepted","2j7bwre4ol_3F_audio.webm"
"1012","
          <div class=""recording-instructions-box"">
            <h2>Read the sentence aloud</h2>
            <p>Take a moment to get ready. When you are ready to begin, click the button below to start recording.</p>
            <p class=""sentence-stimulus"">In colonial times, only the elite classes ate lobster.</p>
          </div>
        ","0","html-button-response","78","4487655","0.0-31.0-0.0","2j7bwre4ol","","","","","","","F11F","In colonial times, only the elite classes ate lobster.","false","sentence_ready","","","","",""
"4613","
          <div class=""recording-instructions-box"">
            <h2>Recording in progress</h2>
            <p>Please read the sentence naturally, then click the button when you are done.</p>
            <p class=""sentence-stimulus"">In colonial times, only the elite classes ate lobster.</p>
          </div>
        ","null","html-audio-response","79","4492339","0.0-31.0-1.0","2j7bwre4ol","","","","","6","","F11F","In colonial times, only the elite classes ate lobster.","false","sentence_recording","blob:https://charburnham.github.io/81d94176-a970-4d77-8d3a-a3afca7bbc25","1","2j7bwre4ol_F11F_audio.webm","",""
"6234","
            <div class=""recording-instructions-box"">
              <h2>Review your recording</h2>
              <p>Listen to your recording for this sentence. If you want, you can record it again before moving on.</p>
              <p class=""sentence-stimulus"">In colonial times, only the elite classes ate lobster.</p>
              <audio controls src=""blob:https://charburnham.github.io/81d94176-a970-4d77-8d3a-a3afca7bbc25"" class=""playback-audio""></audio>
            </div>
          ","1","html-button-response","80","4498575","0.0-31.0-2.0","2j7bwre4ol","","","","","","queued","F11F","In colonial times, only the elite classes ate lobster.","false","sentence_review","","1","2j7bwre4ol_F11F_audio.webm","accepted","2j7bwre4ol_F11F_audio.webm"
"1161","
          <div class=""recording-instructions-box"">
            <h2>Read the sentence aloud</h2>
            <p>Take a moment to get ready. When you are ready to begin, click the button below to start recording.</p>
            <p class=""sentence-stimulus"">English is the official language of the United States.</p>
          </div>
        ","0","html-button-response","81","4499741","0.0-32.0-0.0","2j7bwre4ol","","","","","","","37F","English is the official language of the United States.","false","sentence_ready","","","","",""
"3854","
          <div class=""recording-instructions-box"">
            <h2>Recording in progress</h2>
            <p>Please read the sentence naturally, then click the button when you are done.</p>
            <p class=""sentence-stimulus"">English is the official language of the United States.</p>
          </div>
        ","null","html-audio-response","82","4503663","0.0-32.0-1.0","2j7bwre4ol","","","","","8","","37F","English is the official language of the United States.","false","sentence_recording","blob:https://charburnham.github.io/c7142255-c631-4164-ad7f-a5fdd8623fbd","1","2j7bwre4ol_37F_audio.webm","",""
"5343","
            <div class=""recording-instructions-box"">
              <h2>Review your recording</h2>
              <p>Listen to your recording for this sentence. If you want, you can record it again before moving on.</p>
              <p class=""sentence-stimulus"">English is the official language of the United States.</p>
              <audio controls src=""blob:https://charburnham.github.io/c7142255-c631-4164-ad7f-a5fdd8623fbd"" class=""playback-audio""></audio>
            </div>
          ","1","html-button-response","83","4509008","0.0-32.0-2.0","2j7bwre4ol","","","","","","queued","37F","English is the official language of the United States.","false","sentence_review","","1","2j7bwre4ol_37F_audio.webm","accepted","2j7bwre4ol_37F_audio.webm"
"1097","
          <div class=""recording-instructions-box"">
            <h2>Read the sentence aloud</h2>
            <p>Take a moment to get ready. When you are ready to begin, click the button below to start recording.</p>
            <p class=""sentence-stimulus"">In colonial times, only slaves ate lobster.</p>
          </div>
        ","0","html-button-response","84","4510108","0.0-33.0-0.0","2j7bwre4ol","","","","","","","F11T","In colonial times, only slaves ate lobster.","true","sentence_ready","","","","",""
"4195","
          <div class=""recording-instructions-box"">
            <h2>Recording in progress</h2>
            <p>Please read the sentence naturally, then click the button when you are done.</p>
            <p class=""sentence-stimulus"">In colonial times, only slaves ate lobster.</p>
          </div>
        ","null","html-audio-response","85","4514370","0.0-33.0-1.0","2j7bwre4ol","","","","","4","","F11T","In colonial times, only slaves ate lobster.","true","sentence_recording","blob:https://charburnham.github.io/6d67978f-108d-4dbd-8036-4f77e7a5b610","1","2j7bwre4ol_F11T_audio.webm","",""
"5167","
            <div class=""recording-instructions-box"">
              <h2>Review your recording</h2>
              <p>Listen to your recording for this sentence. If you want, you can record it again before moving on.</p>
              <p class=""sentence-stimulus"">In colonial times, only slaves ate lobster.</p>
              <audio controls src=""blob:https://charburnham.github.io/6d67978f-108d-4dbd-8036-4f77e7a5b610"" class=""playback-audio""></audio>
            </div>
          ","1","html-button-response","86","4519540","0.0-33.0-2.0","2j7bwre4ol","","","","","","queued","F11T","In colonial times, only slaves ate lobster.","true","sentence_review","","1","2j7bwre4ol_F11T_audio.webm","accepted","2j7bwre4ol_F11T_audio.webm"
"1129","
          <div class=""recording-instructions-box"">
            <h2>Read the sentence aloud</h2>
            <p>Take a moment to get ready. When you are ready to begin, click the button below to start recording.</p>
            <p class=""sentence-stimulus"">In Ancient Egypt, a yard was the length of a man's arm span.</p>
          </div>
        ","0","html-button-response","87","4520673","0.0-34.0-0.0","2j7bwre4ol","","","","","","","F15F","In Ancient Egypt, a yard was the length of a man's arm span.","false","sentence_ready","","","","",""
"4784","
          <div class=""recording-instructions-box"">
            <h2>Recording in progress</h2>
            <p>Please read the sentence naturally, then click the button when you are done.</p>
            <p class=""sentence-stimulus"">In Ancient Egypt, a yard was the length of a man's arm span.</p>
          </div>
        ","null","html-audio-response","88","4525525","0.0-34.0-1.0","2j7bwre4ol","","","","","11","","F15F","In Ancient Egypt, a yard was the length of a man's arm span.","false","sentence_recording","blob:https://charburnham.github.io/dffa4522-1fdc-4bc1-805f-698d411e057d","1","2j7bwre4ol_F15F_audio.webm","",""
"6462","
            <div class=""recording-instructions-box"">
              <h2>Review your recording</h2>
              <p>Listen to your recording for this sentence. If you want, you can record it again before moving on.</p>
              <p class=""sentence-stimulus"">In Ancient Egypt, a yard was the length of a man's arm span.</p>
              <audio controls src=""blob:https://charburnham.github.io/dffa4522-1fdc-4bc1-805f-698d411e057d"" class=""playback-audio""></audio>
            </div>
          ","1","html-button-response","89","4531990","0.0-34.0-2.0","2j7bwre4ol","","","","","","queued","F15F","In Ancient Egypt, a yard was the length of a man's arm span.","false","sentence_review","","1","2j7bwre4ol_F15F_audio.webm","accepted","2j7bwre4ol_F15F_audio.webm"
"1626","
          <div class=""recording-instructions-box"">
            <h2>Read the sentence aloud</h2>
            <p>Take a moment to get ready. When you are ready to begin, click the button below to start recording.</p>
            <p class=""sentence-stimulus"">Alabama is the only state that permits residents to cast absentee ballots from space.</p>
          </div>
        ","0","html-button-response","90","4533620","0.0-35.0-0.0","2j7bwre4ol","","","","","","","14F","Alabama is the only state that permits residents to cast absentee ballots from space.","false","sentence_ready","","","","",""
"5950","
          <div class=""recording-instructions-box"">
            <h2>Recording in progress</h2>
            <p>Please read the sentence naturally, then click the button when you are done.</p>
            <p class=""sentence-stimulus"">Alabama is the only state that permits residents to cast absentee ballots from space.</p>
          </div>
        ","null","html-audio-response","91","4539642","0.0-35.0-1.0","2j7bwre4ol","","","","","10","","14F","Alabama is the only state that permits residents to cast absentee ballots from space.","false","sentence_recording","blob:https://charburnham.github.io/c273ccf6-4386-4ac8-baf0-b46ea0c2174c","1","2j7bwre4ol_14F_audio.webm","",""
"7729","
            <div class=""recording-instructions-box"">
              <h2>Review your recording</h2>
              <p>Listen to your recording for this sentence. If you want, you can record it again before moving on.</p>
              <p class=""sentence-stimulus"">Alabama is the only state that permits residents to cast absentee ballots from space.</p>
              <audio controls src=""blob:https://charburnham.github.io/c273ccf6-4386-4ac8-baf0-b46ea0c2174c"" class=""playback-audio""></audio>
            </div>
          ","1","html-button-response","92","4547373","0.0-35.0-2.0","2j7bwre4ol","","","","","","queued","14F","Alabama is the only state that permits residents to cast absentee ballots from space.","false","sentence_review","","1","2j7bwre4ol_14F_audio.webm","accepted","2j7bwre4ol_14F_audio.webm"
"1276","
          <div class=""recording-instructions-box"">
            <h2>Read the sentence aloud</h2>
            <p>Take a moment to get ready. When you are ready to begin, click the button below to start recording.</p>
            <p class=""sentence-stimulus"">Texas is the only state that permits residents to cast absentee ballots from space.</p>
          </div>
        ","0","html-button-response","93","4548653","0.0-36.0-0.0","2j7bwre4ol","","","","","","","14T","Texas is the only state that permits residents to cast absentee ballots from space.","true","sentence_ready","","","","",""
"6085","
          <div class=""recording-instructions-box"">
            <h2>Recording in progress</h2>
            <p>Please read the sentence naturally, then click the button when you are done.</p>
            <p class=""sentence-stimulus"">Texas is the only state that permits residents to cast absentee ballots from space.</p>
          </div>
        ","null","html-audio-response","94","4554799","0.0-36.0-1.0","2j7bwre4ol","","","","","2","","14T","Texas is the only state that permits residents to cast absentee ballots from space.","true","sentence_recording","blob:https://charburnham.github.io/6610c65f-b8e7-4c94-a417-d0c0b255321e","1","2j7bwre4ol_14T_audio.webm","",""
"10084","
            <div class=""recording-instructions-box"">
              <h2>Review your recording</h2>
              <p>Listen to your recording for this sentence. If you want, you can record it again before moving on.</p>
              <p class=""sentence-stimulus"">Texas is the only state that permits residents to cast absentee ballots from space.</p>
              <audio controls src=""blob:https://charburnham.github.io/6610c65f-b8e7-4c94-a417-d0c0b255321e"" class=""playback-audio""></audio>
            </div>
          ","1","html-button-response","95","4564885","0.0-36.0-2.0","2j7bwre4ol","","","","","","queued","14T","Texas is the only state that permits residents to cast absentee ballots from space.","true","sentence_review","","1","2j7bwre4ol_14T_audio.webm","accepted","2j7bwre4ol_14T_audio.webm"
"1860","
          <div class=""recording-instructions-box"">
            <h2>Read the sentence aloud</h2>
            <p>Take a moment to get ready. When you are ready to begin, click the button below to start recording.</p>
            <p class=""sentence-stimulus"">In Ancient Egypt, a yard was the length of a man's arm from nose to tip.</p>
          </div>
        ","0","html-button-response","96","4566748","0.0-37.0-0.0","2j7bwre4ol","","","","","","","F15T","In Ancient Egypt, a yard was the length of a man's arm from nose to tip.","true","sentence_ready","","","","",""
"5452","
          <div class=""recording-instructions-box"">
            <h2>Recording in progress</h2>
            <p>Please read the sentence naturally, then click the button when you are done.</p>
            <p class=""sentence-stimulus"">In Ancient Egypt, a yard was the length of a man's arm from nose to tip.</p>
          </div>
        ","null","html-audio-response","97","4572274","0.0-37.0-1.0","2j7bwre4ol","","","","","12","","F15T","In Ancient Egypt, a yard was the length of a man's arm from nose to tip.","true","sentence_recording","blob:https://charburnham.github.io/6a529707-9b2c-4c8d-82e1-d56d031aa03c","1","2j7bwre4ol_F15T_audio.webm","",""
"6728","
            <div class=""recording-instructions-box"">
              <h2>Review your recording</h2>
              <p>Listen to your recording for this sentence. If you want, you can record it again before moving on.</p>
              <p class=""sentence-stimulus"">In Ancient Egypt, a yard was the length of a man's arm from nose to tip.</p>
              <audio controls src=""blob:https://charburnham.github.io/6a529707-9b2c-4c8d-82e1-d56d031aa03c"" class=""playback-audio""></audio>
            </div>
          ","1","html-button-response","98","4579005","0.0-37.0-2.0","2j7bwre4ol","","","","","","queued","F15T","In Ancient Egypt, a yard was the length of a man's arm from nose to tip.","true","sentence_review","","1","2j7bwre4ol_F15T_audio.webm","accepted","2j7bwre4ol_F15T_audio.webm"
"1076","
          <div class=""recording-instructions-box"">
            <h2>Read the sentence aloud</h2>
            <p>Take a moment to get ready. When you are ready to begin, click the button below to start recording.</p>
            <p class=""sentence-stimulus"">Tapeworms can reach up to 98 feet in length.</p>
          </div>
        ","0","html-button-response","99","4580085","0.0-38.0-0.0","2j7bwre4ol","","","","","","","47T","Tapeworms can reach up to 98 feet in length.","true","sentence_ready","","","","",""
"3551","
          <div class=""recording-instructions-box"">
            <h2>Recording in progress</h2>
            <p>Please read the sentence naturally, then click the button when you are done.</p>
            <p class=""sentence-stimulus"">Tapeworms can reach up to 98 feet in length.</p>
          </div>
        ","null","html-audio-response","100","4583706","0.0-38.0-1.0","2j7bwre4ol","","","","","5","","47T","Tapeworms can reach up to 98 feet in length.","true","sentence_recording","blob:https://charburnham.github.io/642c00fb-0e63-4d4d-80d9-2d6b95025fa2","1","2j7bwre4ol_47T_audio.webm","",""
"4995","
            <div class=""recording-instructions-box"">
              <h2>Review your recording</h2>
              <p>Listen to your recording for this sentence. If you want, you can record it again before moving on.</p>
              <p class=""sentence-stimulus"">Tapeworms can reach up to 98 feet in length.</p>
              <audio controls src=""blob:https://charburnham.github.io/642c00fb-0e63-4d4d-80d9-2d6b95025fa2"" class=""playback-audio""></audio>
            </div>
          ","1","html-button-response","101","4588705","0.0-38.0-2.0","2j7bwre4ol","","","","","","queued","47T","Tapeworms can reach up to 98 feet in length.","true","sentence_review","","1","2j7bwre4ol_47T_audio.webm","accepted","2j7bwre4ol_47T_audio.webm"
"1108","
          <div class=""recording-instructions-box"">
            <h2>Read the sentence aloud</h2>
            <p>Take a moment to get ready. When you are ready to begin, click the button below to start recording.</p>
            <p class=""sentence-stimulus"">A jellyfish is more than 95% water.</p>
          </div>
        ","0","html-button-response","102","4589816","0.0-39.0-0.0","2j7bwre4ol","","","","","","","F9T","A jellyfish is more than 95% water.","true","sentence_ready","","","","",""
"3547","
          <div class=""recording-instructions-box"">
            <h2>Recording in progress</h2>
            <p>Please read the sentence naturally, then click the button when you are done.</p>
            <p class=""sentence-stimulus"">A jellyfish is more than 95% water.</p>
          </div>
        ","null","html-audio-response","103","4593435","0.0-39.0-1.0","2j7bwre4ol","","","","","7","","F9T","A jellyfish is more than 95% water.","true","sentence_recording","blob:https://charburnham.github.io/51c7c16c-6136-4aa4-aa5f-d2f6b658c55b","1","2j7bwre4ol_F9T_audio.webm","",""
"4633","
            <div class=""recording-instructions-box"">
              <h2>Review your recording</h2>
              <p>Listen to your recording for this sentence. If you want, you can record it again before moving on.</p>
              <p class=""sentence-stimulus"">A jellyfish is more than 95% water.</p>
              <audio controls src=""blob:https://charburnham.github.io/51c7c16c-6136-4aa4-aa5f-d2f6b658c55b"" class=""playback-audio""></audio>
            </div>
          ","1","html-button-response","104","4598070","0.0-39.0-2.0","2j7bwre4ol","","","","","","queued","F9T","A jellyfish is more than 95% water.","true","sentence_review","","1","2j7bwre4ol_F9T_audio.webm","accepted","2j7bwre4ol_F9T_audio.webm"
"1476","
          <div class=""recording-instructions-box"">
            <h2>Read the sentence aloud</h2>
            <p>Take a moment to get ready. When you are ready to begin, click the button below to start recording.</p>
            <p class=""sentence-stimulus"">Traffic lights were invented before automobiles.</p>
          </div>
        ","0","html-button-response","105","4599551","0.0-40.0-0.0","2j7bwre4ol","","","","","","","26T","Traffic lights were invented before automobiles.","true","sentence_ready","","","","",""
"3474","
          <div class=""recording-instructions-box"">
            <h2>Recording in progress</h2>
            <p>Please read the sentence naturally, then click the button when you are done.</p>
            <p class=""sentence-stimulus"">Traffic lights were invented before automobiles.</p>
          </div>
        ","null","html-audio-response","106","4603095","0.0-40.0-1.0","2j7bwre4ol","","","","","10","","26T","Traffic lights were invented before automobiles.","true","sentence_recording","blob:https://charburnham.github.io/e23d385e-aec8-49dc-894d-98c44a67d602","1","2j7bwre4ol_26T_audio.webm","",""
"5240","
            <div class=""recording-instructions-box"">
              <h2>Review your recording</h2>
              <p>Listen to your recording for this sentence. If you want, you can record it again before moving on.</p>
              <p class=""sentence-stimulus"">Traffic lights were invented before automobiles.</p>
              <audio controls src=""blob:https://charburnham.github.io/e23d385e-aec8-49dc-894d-98c44a67d602"" class=""playback-audio""></audio>
            </div>
          ","1","html-button-response","107","4608337","0.0-40.0-2.0","2j7bwre4ol","","","","","","queued","26T","Traffic lights were invented before automobiles.","true","sentence_review","","1","2j7bwre4ol_26T_audio.webm","accepted","2j7bwre4ol_26T_audio.webm"
"1126","
          <div class=""recording-instructions-box"">
            <h2>Read the sentence aloud</h2>
            <p>Take a moment to get ready. When you are ready to begin, click the button below to start recording.</p>
            <p class=""sentence-stimulus"">The clownfish is the only animal that can turn its stomach inside out.</p>
          </div>
        ","0","html-button-response","108","4609466","0.0-41.0-0.0","2j7bwre4ol","","","","","","","12F","The clownfish is the only animal that can turn its stomach inside out.","false","sentence_ready","","","","",""
"4818","
          <div class=""recording-instructions-box"">
            <h2>Recording in progress</h2>
            <p>Please read the sentence naturally, then click the button when you are done.</p>
            <p class=""sentence-stimulus"">The clownfish is the only animal that can turn its stomach inside out.</p>
          </div>
        ","null","html-audio-response","109","4614355","0.0-41.0-1.0","2j7bwre4ol","","","","","6","","12F","The clownfish is the only animal that can turn its stomach inside out.","false","sentence_recording","blob:https://charburnham.github.io/97a8fc0c-2d31-47e4-8bee-2cfb45560eb6","1","2j7bwre4ol_12F_audio.webm","",""
"6810","
            <div class=""recording-instructions-box"">
              <h2>Review your recording</h2>
              <p>Listen to your recording for this sentence. If you want, you can record it again before moving on.</p>
              <p class=""sentence-stimulus"">The clownfish is the only animal that can turn its stomach inside out.</p>
              <audio controls src=""blob:https://charburnham.github.io/97a8fc0c-2d31-47e4-8bee-2cfb45560eb6"" class=""playback-audio""></audio>
            </div>
          ","0","html-button-response","110","4621167","0.0-41.0-2.0","2j7bwre4ol","","","","","","not_uploaded_rerecorded","12F","The clownfish is the only animal that can turn its stomach inside out.","false","sentence_review","","1","2j7bwre4ol_12F_audio.webm","rerecord","null"
"1163","
          <div class=""recording-instructions-box"">
            <h2>Read the sentence aloud</h2>
            <p>Take a moment to get ready. When you are ready to begin, click the button below to start recording.</p>
            <p class=""sentence-stimulus"">The clownfish is the only animal that can turn its stomach inside out.</p>
          </div>
        ","0","html-button-response","111","4622333","0.0-41.1-0.1","2j7bwre4ol","","","","","","","12F","The clownfish is the only animal that can turn its stomach inside out.","false","sentence_ready","","","","",""
"4679","
          <div class=""recording-instructions-box"">
            <h2>Recording in progress</h2>
            <p>Please read the sentence naturally, then click the button when you are done.</p>
            <p class=""sentence-stimulus"">The clownfish is the only animal that can turn its stomach inside out.</p>
          </div>
        ","null","html-audio-response","112","4627071","0.0-41.1-1.1","2j7bwre4ol","","","","","2","","12F","The clownfish is the only animal that can turn its stomach inside out.","false","sentence_recording","blob:https://charburnham.github.io/d8d3aa36-5074-4249-b7fb-6f76f71b0350","2","2j7bwre4ol_12F_audio.webm","",""
"892","
            <div class=""recording-instructions-box"">
              <h2>Review your recording</h2>
              <p>Listen to your recording for this sentence. If you want, you can record it again before moving on.</p>
              <p class=""sentence-stimulus"">The clownfish is the only animal that can turn its stomach inside out.</p>
              <audio controls src=""blob:https://charburnham.github.io/d8d3aa36-5074-4249-b7fb-6f76f71b0350"" class=""playback-audio""></audio>
            </div>
          ","0","html-button-response","113","4627966","0.0-41.1-2.1","2j7bwre4ol","","","","","","not_uploaded_rerecorded","12F","The clownfish is the only animal that can turn its stomach inside out.","false","sentence_review","","2","2j7bwre4ol_12F_audio.webm","rerecord","null"
"1822","
          <div class=""recording-instructions-box"">
            <h2>Read the sentence aloud</h2>
            <p>Take a moment to get ready. When you are ready to begin, click the button below to start recording.</p>
            <p class=""sentence-stimulus"">The clownfish is the only animal that can turn its stomach inside out.</p>
          </div>
        ","0","html-button-response","114","4629790","0.0-41.2-0.2","2j7bwre4ol","","","","","","","12F","The clownfish is the only animal that can turn its stomach inside out.","false","sentence_ready","","","","",""
"5232","
          <div class=""recording-instructions-box"">
            <h2>Recording in progress</h2>
            <p>Please read the sentence naturally, then click the button when you are done.</p>
            <p class=""sentence-stimulus"">The clownfish is the only animal that can turn its stomach inside out.</p>
          </div>
        ","null","html-audio-response","115","4635086","0.0-41.2-1.2","2j7bwre4ol","","","","","3","","12F","The clownfish is the only animal that can turn its stomach inside out.","false","sentence_recording","blob:https://charburnham.github.io/4ed66655-de11-417f-ae93-91bfe9d1f270","3","2j7bwre4ol_12F_audio.webm","",""
"6363","
            <div class=""recording-instructions-box"">
              <h2>Review your recording</h2>
              <p>Listen to your recording for this sentence. If you want, you can record it again before moving on.</p>
              <p class=""sentence-stimulus"">The clownfish is the only animal that can turn its stomach inside out.</p>
              <audio controls src=""blob:https://charburnham.github.io/4ed66655-de11-417f-ae93-91bfe9d1f270"" class=""playback-audio""></audio>
            </div>
          ","1","html-button-response","116","4641451","0.0-41.2-2.2","2j7bwre4ol","","","","","","queued","12F","The clownfish is the only animal that can turn its stomach inside out.","false","sentence_review","","3","2j7bwre4ol_12F_audio.webm","accepted","2j7bwre4ol_12F_audio.webm"
"1176","
          <div class=""recording-instructions-box"">
            <h2>Read the sentence aloud</h2>
            <p>Take a moment to get ready. When you are ready to begin, click the button below to start recording.</p>
            <p class=""sentence-stimulus"">Dishwashers were invented before washing machines.</p>
          </div>
        ","0","html-button-response","117","4642632","0.0-42.0-0.0","2j7bwre4ol","","","","","","","28T","Dishwashers were invented before washing machines.","true","sentence_ready","","","","",""
"4735","
          <div class=""recording-instructions-box"">
            <h2>Recording in progress</h2>
            <p>Please read the sentence naturally, then click the button when you are done.</p>
            <p class=""sentence-stimulus"">Dishwashers were invented before washing machines.</p>
          </div>
        ","null","html-audio-response","118","4647436","0.0-42.0-1.0","2j7bwre4ol","","","","","11","","28T","Dishwashers were invented before washing machines.","true","sentence_recording","blob:https://charburnham.github.io/3abd851f-2ced-4f4b-a7d1-68938ec7a24a","1","2j7bwre4ol_28T_audio.webm","",""
"5764","
            <div class=""recording-instructions-box"">
              <h2>Review your recording</h2>
              <p>Listen to your recording for this sentence. If you want, you can record it again before moving on.</p>
              <p class=""sentence-stimulus"">Dishwashers were invented before washing machines.</p>
              <audio controls src=""blob:https://charburnham.github.io/3abd851f-2ced-4f4b-a7d1-68938ec7a24a"" class=""playback-audio""></audio>
            </div>
          ","1","html-button-response","119","4653203","0.0-42.0-2.0","2j7bwre4ol","","","","","","queued","28T","Dishwashers were invented before washing machines.","true","sentence_review","","1","2j7bwre4ol_28T_audio.webm","accepted","2j7bwre4ol_28T_audio.webm"
"4808","
          <div class=""recording-instructions-box"">
            <h2>Read the sentence aloud</h2>
            <p>Take a moment to get ready. When you are ready to begin, click the button below to start recording.</p>
            <p class=""sentence-stimulus"">Nepal is the only country whose national flag is not rectangular.</p>
          </div>
        ","0","html-button-response","120","4658016","0.0-43.0-0.0","2j7bwre4ol","","","","","","","35T","Nepal is the only country whose national flag is not rectangular.","true","sentence_ready","","","","",""
"5245","
          <div class=""recording-instructions-box"">
            <h2>Recording in progress</h2>
            <p>Please read the sentence naturally, then click the button when you are done.</p>
            <p class=""sentence-stimulus"">Nepal is the only country whose national flag is not rectangular.</p>
          </div>
        ","null","html-audio-response","121","4663331","0.0-43.0-1.0","2j7bwre4ol","","","","","4","","35T","Nepal is the only country whose national flag is not rectangular.","true","sentence_recording","blob:https://charburnham.github.io/7abaf613-67c2-4aeb-a009-1e198f2b74e2","1","2j7bwre4ol_35T_audio.webm","",""
"7033","
            <div class=""recording-instructions-box"">
              <h2>Review your recording</h2>
              <p>Listen to your recording for this sentence. If you want, you can record it again before moving on.</p>
              <p class=""sentence-stimulus"">Nepal is the only country whose national flag is not rectangular.</p>
              <audio controls src=""blob:https://charburnham.github.io/7abaf613-67c2-4aeb-a009-1e198f2b74e2"" class=""playback-audio""></audio>
            </div>
          ","1","html-button-response","122","4670366","0.0-43.0-2.0","2j7bwre4ol","","","","","","queued","35T","Nepal is the only country whose national flag is not rectangular.","true","sentence_review","","1","2j7bwre4ol_35T_audio.webm","accepted","2j7bwre4ol_35T_audio.webm"
"1826","
          <div class=""recording-instructions-box"">
            <h2>Read the sentence aloud</h2>
            <p>Take a moment to get ready. When you are ready to begin, click the button below to start recording.</p>
            <p class=""sentence-stimulus"">There is a type of catfish that can walk on land.</p>
          </div>
        ","0","html-button-response","123","4672197","0.0-44.0-0.0","2j7bwre4ol","","","","","","","23T","There is a type of catfish that can walk on land.","true","sentence_ready","","","","",""
"4339","
          <div class=""recording-instructions-box"">
            <h2>Recording in progress</h2>
            <p>Please read the sentence naturally, then click the button when you are done.</p>
            <p class=""sentence-stimulus"">There is a type of catfish that can walk on land.</p>
          </div>
        ","null","html-audio-response","124","4676607","0.0-44.0-1.0","2j7bwre4ol","","","","","6","","23T","There is a type of catfish that can walk on land.","true","sentence_recording","blob:https://charburnham.github.io/f0e5ca5f-b15c-4ca3-b64e-675b078721e1","1","2j7bwre4ol_23T_audio.webm","",""
"1351","
            <div class=""recording-instructions-box"">
              <h2>Review your recording</h2>
              <p>Listen to your recording for this sentence. If you want, you can record it again before moving on.</p>
              <p class=""sentence-stimulus"">There is a type of catfish that can walk on land.</p>
              <audio controls src=""blob:https://charburnham.github.io/f0e5ca5f-b15c-4ca3-b64e-675b078721e1"" class=""playback-audio""></audio>
            </div>
          ","0","html-button-response","125","4677961","0.0-44.0-2.0","2j7bwre4ol","","","","","","not_uploaded_rerecorded","23T","There is a type of catfish that can walk on land.","true","sentence_review","","1","2j7bwre4ol_23T_audio.webm","rerecord","null"
"984","
          <div class=""recording-instructions-box"">
            <h2>Read the sentence aloud</h2>
            <p>Take a moment to get ready. When you are ready to begin, click the button below to start recording.</p>
            <p class=""sentence-stimulus"">There is a type of catfish that can walk on land.</p>
          </div>
        ","0","html-button-response","126","4678946","0.0-44.1-0.1","2j7bwre4ol","","","","","","","23T","There is a type of catfish that can walk on land.","true","sentence_ready","","","","",""
"3784","
          <div class=""recording-instructions-box"">
            <h2>Recording in progress</h2>
            <p>Please read the sentence naturally, then click the button when you are done.</p>
            <p class=""sentence-stimulus"">There is a type of catfish that can walk on land.</p>
          </div>
        ","null","html-audio-response","127","4682801","0.0-44.1-1.1","2j7bwre4ol","","","","","6","","23T","There is a type of catfish that can walk on land.","true","sentence_recording","blob:https://charburnham.github.io/be52cf3a-50d3-4f02-a2de-b08ccc6fa975","2","2j7bwre4ol_23T_audio.webm","",""
"5713","
            <div class=""recording-instructions-box"">
              <h2>Review your recording</h2>
              <p>Listen to your recording for this sentence. If you want, you can record it again before moving on.</p>
              <p class=""sentence-stimulus"">There is a type of catfish that can walk on land.</p>
              <audio controls src=""blob:https://charburnham.github.io/be52cf3a-50d3-4f02-a2de-b08ccc6fa975"" class=""playback-audio""></audio>
            </div>
          ","1","html-button-response","128","4688516","0.0-44.1-2.1","2j7bwre4ol","","","","","","queued","23T","There is a type of catfish that can walk on land.","true","sentence_review","","2","2j7bwre4ol_23T_audio.webm","accepted","2j7bwre4ol_23T_audio.webm"
"1307","
          <div class=""recording-instructions-box"">
            <h2>Read the sentence aloud</h2>
            <p>Take a moment to get ready. When you are ready to begin, click the button below to start recording.</p>
            <p class=""sentence-stimulus"">Germany was the first country to use a submarine in warfare.</p>
          </div>
        ","0","html-button-response","129","4689827","0.0-45.0-0.0","2j7bwre4ol","","","","","","","49F","Germany was the first country to use a submarine in warfare.","false","sentence_ready","","","","",""
"4758","
          <div class=""recording-instructions-box"">
            <h2>Recording in progress</h2>
            <p>Please read the sentence naturally, then click the button when you are done.</p>
            <p class=""sentence-stimulus"">Germany was the first country to use a submarine in warfare.</p>
          </div>
        ","null","html-audio-response","130","4694659","0.0-45.0-1.0","2j7bwre4ol","","","","","9","","49F","Germany was the first country to use a submarine in warfare.","false","sentence_recording","blob:https://charburnham.github.io/e0054893-80f3-41b5-9dd2-f9bd242e5419","1","2j7bwre4ol_49F_audio.webm","",""
"5836","
            <div class=""recording-instructions-box"">
              <h2>Review your recording</h2>
              <p>Listen to your recording for this sentence. If you want, you can record it again before moving on.</p>
              <p class=""sentence-stimulus"">Germany was the first country to use a submarine in warfare.</p>
              <audio controls src=""blob:https://charburnham.github.io/e0054893-80f3-41b5-9dd2-f9bd242e5419"" class=""playback-audio""></audio>
            </div>
          ","1","html-button-response","131","4700498","0.0-45.0-2.0","2j7bwre4ol","","","","","","queued","49F","Germany was the first country to use a submarine in warfare.","false","sentence_review","","1","2j7bwre4ol_49F_audio.webm","accepted","2j7bwre4ol_49F_audio.webm"
"1261","
          <div class=""recording-instructions-box"">
            <h2>Read the sentence aloud</h2>
            <p>Take a moment to get ready. When you are ready to begin, click the button below to start recording.</p>
            <p class=""sentence-stimulus"">Men blink more frequently than do women.</p>
          </div>
        ","0","html-button-response","132","4701762","0.0-46.0-0.0","2j7bwre4ol","","","","","","","F19F","Men blink more frequently than do women.","false","sentence_ready","","","","",""
"4222","
          <div class=""recording-instructions-box"">
            <h2>Recording in progress</h2>
            <p>Please read the sentence naturally, then click the button when you are done.</p>
            <p class=""sentence-stimulus"">Men blink more frequently than do women.</p>
          </div>
        ","null","html-audio-response","133","4706053","0.0-46.0-1.0","2j7bwre4ol","","","","","11","","F19F","Men blink more frequently than do women.","false","sentence_recording","blob:https://charburnham.github.io/837ddbd5-72ad-4d18-b082-1bda061e1355","1","2j7bwre4ol_F19F_audio.webm","",""
"4942","
            <div class=""recording-instructions-box"">
              <h2>Review your recording</h2>
              <p>Listen to your recording for this sentence. If you want, you can record it again before moving on.</p>
              <p class=""sentence-stimulus"">Men blink more frequently than do women.</p>
              <audio controls src=""blob:https://charburnham.github.io/837ddbd5-72ad-4d18-b082-1bda061e1355"" class=""playback-audio""></audio>
            </div>
          ","1","html-button-response","134","4710998","0.0-46.0-2.0","2j7bwre4ol","","","","","","queued","F19F","Men blink more frequently than do women.","false","sentence_review","","1","2j7bwre4ol_F19F_audio.webm","accepted","2j7bwre4ol_F19F_audio.webm"
"1821","
          <div class=""recording-instructions-box"">
            <h2>Read the sentence aloud</h2>
            <p>Take a moment to get ready. When you are ready to begin, click the button below to start recording.</p>
            <p class=""sentence-stimulus"">Studies suggest that ants can lift up to 5000 times their own weight.</p>
          </div>
        ","0","html-button-response","135","4712822","0.0-47.0-0.0","2j7bwre4ol","","","","","","","6T","Studies suggest that ants can lift up to 5000 times their own weight.","true","sentence_ready","","","","",""
"5135","
          <div class=""recording-instructions-box"">
            <h2>Recording in progress</h2>
            <p>Please read the sentence naturally, then click the button when you are done.</p>
            <p class=""sentence-stimulus"">Studies suggest that ants can lift up to 5000 times their own weight.</p>
          </div>
        ","null","html-audio-response","136","4718033","0.0-47.0-1.0","2j7bwre4ol","","","","","18","","6T","Studies suggest that ants can lift up to 5000 times their own weight.","true","sentence_recording","blob:https://charburnham.github.io/867d1eab-ab16-4995-9035-ec516aaf96cd","1","2j7bwre4ol_6T_audio.webm","",""
"6344","
            <div class=""recording-instructions-box"">
              <h2>Review your recording</h2>
              <p>Listen to your recording for this sentence. If you want, you can record it again before moving on.</p>
              <p class=""sentence-stimulus"">Studies suggest that ants can lift up to 5000 times their own weight.</p>
              <audio controls src=""blob:https://charburnham.github.io/867d1eab-ab16-4995-9035-ec516aaf96cd"" class=""playback-audio""></audio>
            </div>
          ","0","html-button-response","137","4724380","0.0-47.0-2.0","2j7bwre4ol","","","","","","not_uploaded_rerecorded","6T","Studies suggest that ants can lift up to 5000 times their own weight.","true","sentence_review","","1","2j7bwre4ol_6T_audio.webm","rerecord","null"
"1413","
          <div class=""recording-instructions-box"">
            <h2>Read the sentence aloud</h2>
            <p>Take a moment to get ready. When you are ready to begin, click the button below to start recording.</p>
            <p class=""sentence-stimulus"">Studies suggest that ants can lift up to 5000 times their own weight.</p>
          </div>
        ","0","html-button-response","138","4725794","0.0-47.1-0.1","2j7bwre4ol","","","","","","","6T","Studies suggest that ants can lift up to 5000 times their own weight.","true","sentence_ready","","","","",""
"5910","
          <div class=""recording-instructions-box"">
            <h2>Recording in progress</h2>
            <p>Please read the sentence naturally, then click the button when you are done.</p>
            <p class=""sentence-stimulus"">Studies suggest that ants can lift up to 5000 times their own weight.</p>
          </div>
        ","null","html-audio-response","139","4731774","0.0-47.1-1.1","2j7bwre4ol","","","","","4","","6T","Studies suggest that ants can lift up to 5000 times their own weight.","true","sentence_recording","blob:https://charburnham.github.io/4b55d090-fc7b-4206-87fe-183f2932ccd7","2","2j7bwre4ol_6T_audio.webm","",""
"7753","
            <div class=""recording-instructions-box"">
              <h2>Review your recording</h2>
              <p>Listen to your recording for this sentence. If you want, you can record it again before moving on.</p>
              <p class=""sentence-stimulus"">Studies suggest that ants can lift up to 5000 times their own weight.</p>
              <audio controls src=""blob:https://charburnham.github.io/4b55d090-fc7b-4206-87fe-183f2932ccd7"" class=""playback-audio""></audio>
            </div>
          ","1","html-button-response","140","4739530","0.0-47.1-2.1","2j7bwre4ol","","","","","","queued","6T","Studies suggest that ants can lift up to 5000 times their own weight.","true","sentence_review","","2","2j7bwre4ol_6T_audio.webm","accepted","2j7bwre4ol_6T_audio.webm"
"1714","
          <div class=""recording-instructions-box"">
            <h2>Read the sentence aloud</h2>
            <p>Take a moment to get ready. When you are ready to begin, click the button below to start recording.</p>
            <p class=""sentence-stimulus"">A bee has 3 eyes.</p>
          </div>
        ","0","html-button-response","141","4741249","0.0-48.0-0.0","2j7bwre4ol","","","","","","","4F","A bee has 3 eyes.","false","sentence_ready","","","","",""
"2846","
          <div class=""recording-instructions-box"">
            <h2>Recording in progress</h2>
            <p>Please read the sentence naturally, then click the button when you are done.</p>
            <p class=""sentence-stimulus"">A bee has 3 eyes.</p>
          </div>
        ","null","html-audio-response","142","4744159","0.0-48.0-1.0","2j7bwre4ol","","","","","3","","4F","A bee has 3 eyes.","false","sentence_recording","blob:https://charburnham.github.io/7f9122ec-92c8-493a-b9f2-59276ac800e4","1","2j7bwre4ol_4F_audio.webm","",""
"4084","
            <div class=""recording-instructions-box"">
              <h2>Review your recording</h2>
              <p>Listen to your recording for this sentence. If you want, you can record it again before moving on.</p>
              <p class=""sentence-stimulus"">A bee has 3 eyes.</p>
              <audio controls src=""blob:https://charburnham.github.io/7f9122ec-92c8-493a-b9f2-59276ac800e4"" class=""playback-audio""></audio>
            </div>
          ","1","html-button-response","143","4748246","0.0-48.0-2.0","2j7bwre4ol","","","","","","queued","4F","A bee has 3 eyes.","false","sentence_review","","1","2j7bwre4ol_4F_audio.webm","accepted","2j7bwre4ol_4F_audio.webm"
"1289","
          <div class=""recording-instructions-box"">
            <h2>Read the sentence aloud</h2>
            <p>Take a moment to get ready. When you are ready to begin, click the button below to start recording.</p>
            <p class=""sentence-stimulus"">The state of Arizona does not observe daylight savings time.</p>
          </div>
        ","0","html-button-response","144","4749539","0.0-49.0-0.0","2j7bwre4ol","","","","","","","F8T","The state of Arizona does not observe daylight savings time.","true","sentence_ready","","","","",""
"4052","
          <div class=""recording-instructions-box"">
            <h2>Recording in progress</h2>
            <p>Please read the sentence naturally, then click the button when you are done.</p>
            <p class=""sentence-stimulus"">The state of Arizona does not observe daylight savings time.</p>
          </div>
        ","null","html-audio-response","145","4753664","0.0-49.0-1.0","2j7bwre4ol","","","","","12","","F8T","The state of Arizona does not observe daylight savings time.","true","sentence_recording","blob:https://charburnham.github.io/bad8d2c7-086b-4021-9bc9-8c4df9a46983","1","2j7bwre4ol_F8T_audio.webm","",""
"5014","
            <div class=""recording-instructions-box"">
              <h2>Review your recording</h2>
              <p>Listen to your recording for this sentence. If you want, you can record it again before moving on.</p>
              <p class=""sentence-stimulus"">The state of Arizona does not observe daylight savings time.</p>
              <audio controls src=""blob:https://charburnham.github.io/bad8d2c7-086b-4021-9bc9-8c4df9a46983"" class=""playback-audio""></audio>
            </div>
          ","1","html-button-response","146","4758680","0.0-49.0-2.0","2j7bwre4ol","","","","","","queued","F8T","The state of Arizona does not observe daylight savings time.","true","sentence_review","","1","2j7bwre4ol_F8T_audio.webm","accepted","2j7bwre4ol_F8T_audio.webm"
"1158","
          <div class=""recording-instructions-box"">
            <h2>Read the sentence aloud</h2>
            <p>Take a moment to get ready. When you are ready to begin, click the button below to start recording.</p>
            <p class=""sentence-stimulus"">An iceberg contains significantly less total heat energy than a burning match.</p>
          </div>
        ","0","html-button-response","147","4759841","0.0-50.0-0.0","2j7bwre4ol","","","","","","","1F","An iceberg contains significantly less total heat energy than a burning match.","false","sentence_ready","","","","",""
"5303","
          <div class=""recording-instructions-box"">
            <h2>Recording in progress</h2>
            <p>Please read the sentence naturally, then click the button when you are done.</p>
            <p class=""sentence-stimulus"">An iceberg contains significantly less total heat energy than a burning match.</p>
          </div>
        ","null","html-audio-response","148","4765216","0.0-50.0-1.0","2j7bwre4ol","","","","","12","","1F","An iceberg contains significantly less total heat energy than a burning match.","false","sentence_recording","blob:https://charburnham.github.io/fbca8cfa-2767-41ca-b58f-0969e3e2784b","1","2j7bwre4ol_1F_audio.webm","",""
"6193","
            <div class=""recording-instructions-box"">
              <h2>Review your recording</h2>
              <p>Listen to your recording for this sentence. If you want, you can record it again before moving on.</p>
              <p class=""sentence-stimulus"">An iceberg contains significantly less total heat energy than a burning match.</p>
              <audio controls src=""blob:https://charburnham.github.io/fbca8cfa-2767-41ca-b58f-0969e3e2784b"" class=""playback-audio""></audio>
            </div>
          ","1","html-button-response","149","4771411","0.0-50.0-2.0","2j7bwre4ol","","","","","","queued","1F","An iceberg contains significantly less total heat energy than a burning match.","false","sentence_review","","1","2j7bwre4ol_1F_audio.webm","accepted","2j7bwre4ol_1F_audio.webm"
"1140","
          <div class=""recording-instructions-box"">
            <h2>Read the sentence aloud</h2>
            <p>Take a moment to get ready. When you are ready to begin, click the button below to start recording.</p>
            <p class=""sentence-stimulus"">Three U.S. presidents have been awarded honorary knighthood.</p>
          </div>
        ","0","html-button-response","150","4772554","0.0-51.0-0.0","2j7bwre4ol","","","","","","","41T","Three U.S. presidents have been awarded honorary knighthood.","true","sentence_ready","","","","",""
"4055","
          <div class=""recording-instructions-box"">
            <h2>Recording in progress</h2>
            <p>Please read the sentence naturally, then click the button when you are done.</p>
            <p class=""sentence-stimulus"">Three U.S. presidents have been awarded honorary knighthood.</p>
          </div>
        ","null","html-audio-response","151","4776683","0.0-51.0-1.0","2j7bwre4ol","","","","","8","","41T","Three U.S. presidents have been awarded honorary knighthood.","true","sentence_recording","blob:https://charburnham.github.io/83cbc82d-c93d-469b-8f06-843b25173462","1","2j7bwre4ol_41T_audio.webm","",""
"5108","
            <div class=""recording-instructions-box"">
              <h2>Review your recording</h2>
              <p>Listen to your recording for this sentence. If you want, you can record it again before moving on.</p>
              <p class=""sentence-stimulus"">Three U.S. presidents have been awarded honorary knighthood.</p>
              <audio controls src=""blob:https://charburnham.github.io/83cbc82d-c93d-469b-8f06-843b25173462"" class=""playback-audio""></audio>
            </div>
          ","1","html-button-response","152","4781793","0.0-51.0-2.0","2j7bwre4ol","","","","","","queued","41T","Three U.S. presidents have been awarded honorary knighthood.","true","sentence_review","","1","2j7bwre4ol_41T_audio.webm","accepted","2j7bwre4ol_41T_audio.webm"
"1261","
          <div class=""recording-instructions-box"">
            <h2>Read the sentence aloud</h2>
            <p>Take a moment to get ready. When you are ready to begin, click the button below to start recording.</p>
            <p class=""sentence-stimulus"">There are towns named Sandwich in Illinois and Massachusetts.</p>
          </div>
        ","0","html-button-response","153","4783059","0.0-52.0-0.0","2j7bwre4ol","","","","","","","20T","There are towns named Sandwich in Illinois and Massachusetts.","true","sentence_ready","","","","",""
"4252","
          <div class=""recording-instructions-box"">
            <h2>Recording in progress</h2>
            <p>Please read the sentence naturally, then click the button when you are done.</p>
            <p class=""sentence-stimulus"">There are towns named Sandwich in Illinois and Massachusetts.</p>
          </div>
        ","null","html-audio-response","154","4787381","0.0-52.0-1.0","2j7bwre4ol","","","","","7","","20T","There are towns named Sandwich in Illinois and Massachusetts.","true","sentence_recording","blob:https://charburnham.github.io/7a4a9535-aa14-4123-a0be-ebbef11f6b5a","1","2j7bwre4ol_20T_audio.webm","",""
"5408","
            <div class=""recording-instructions-box"">
              <h2>Review your recording</h2>
              <p>Listen to your recording for this sentence. If you want, you can record it again before moving on.</p>
              <p class=""sentence-stimulus"">There are towns named Sandwich in Illinois and Massachusetts.</p>
              <audio controls src=""blob:https://charburnham.github.io/7a4a9535-aa14-4123-a0be-ebbef11f6b5a"" class=""playback-audio""></audio>
            </div>
          ","1","html-button-response","155","4792792","0.0-52.0-2.0","2j7bwre4ol","","","","","","queued","20T","There are towns named Sandwich in Illinois and Massachusetts.","true","sentence_review","","1","2j7bwre4ol_20T_audio.webm","accepted","2j7bwre4ol_20T_audio.webm"
"1278","
          <div class=""recording-instructions-box"">
            <h2>Read the sentence aloud</h2>
            <p>Take a moment to get ready. When you are ready to begin, click the button below to start recording.</p>
            <p class=""sentence-stimulus"">Louisiana was named after Louis 14th.</p>
          </div>
        ","0","html-button-response","156","4794073","0.0-53.0-0.0","2j7bwre4ol","","","","","","","17T","Louisiana was named after Louis 14th.","true","sentence_ready","","","","",""
"3468","
          <div class=""recording-instructions-box"">
            <h2>Recording in progress</h2>
            <p>Please read the sentence naturally, then click the button when you are done.</p>
            <p class=""sentence-stimulus"">Louisiana was named after Louis 14th.</p>
          </div>
        ","null","html-audio-response","157","4797612","0.0-53.0-1.0","2j7bwre4ol","","","","","14","","17T","Louisiana was named after Louis 14th.","true","sentence_recording","blob:https://charburnham.github.io/76283c0b-f429-413b-8d9e-0e2f736d7bcb","1","2j7bwre4ol_17T_audio.webm","",""
"4379","
            <div class=""recording-instructions-box"">
              <h2>Review your recording</h2>
