"rt","stimulus","response","trial_type","trial_index","time_elapsed","internal_node_id","subject_id","microphone_confirmed","device_id","view_history","trial_type_label","estimated_stimulus_onset","audio_upload","stimulus_code","sentence","condition","trial_stage","audio_url","recording_attempt","recording_filename","review_decision","saved_audio_file"
"1918","
    <div class=""consent"">
      <h2>Consent Form</h2>
      <p>If you agree to participate in this research, please click ""Continue"".</p>
    </div>
  ","0","html-button-response","0","1926","0.0-0.0","ftqpxk732r","","","","","","","","","","","","","","",""
"11070","
    <div class=""instructions"">
      <h2>Instructions</h2>
      <p>In this experiment, you will see a sentence on the screen.</p>
      <p>Your task is to record yourself reading that sentence aloud using your microphone.</p>
      <p>For each sentence, you'll click <strong>Start Recording</strong> when you're ready, rather than having the recording begin right away.</p>
      <p>After each recording, you can listen back and either continue to the next sentence or re-record.</p>
      <p>Click ""Next"" to continue to the microphone test.</p>
    </div>
  ","0","html-button-response","1","12996","0.0-1.0","ftqpxk732r","","","","","","","","","","","","","","",""
"","","","html-keyboard-response","2","17372","0.0-2.0","ftqpxk732r","yes","","","","","","","","","","","","","",""
"2974","
    <div class=""content"">
      <h2>Microphone Setup</h2>
      <div class=""instruction-box"">
        <p>Before starting the experiment, we need to set up your microphone.</p>
        <p>On the next page:</p>
        <ul>
          <li>Your browser will ask for microphone permission - please click <strong>Allow</strong></li>
          <li>You'll see a dropdown menu with available microphones</li>
          <li>Select the microphone you want to use</li>
          <li>Click ""Use this microphone"" to continue</li>
        </ul>
      </div>
    </div>
  ","0","html-button-response","3","20346","0.0-3.0","ftqpxk732r","","","","","","","","","","","","","","",""
"","","","initialize-microphone","4","24638","0.0-4.0","ftqpxk732r","","dd548d52978268d71ad87449282ac3a611d633c7b80ec9eaa65d00c394812e9e","","","","","","","","","","","","",""
"7362","","","instructions","5","32000","0.0-5.0","ftqpxk732r","","","[{""page_index"":0,""viewing_time"":7362}]","","","","","","","","","","","",""
"2921","
        <div class=""content"">
          <div class=""recording-box"">
            <h3>Microphone Test</h3>
            <p>Take a moment to get ready.</p>
            <p>Click the button below when you want to begin the test recording.</p>
          </div>
        </div>
      ","0","html-button-response","6","34922","0.0-6.0","ftqpxk732r","","","","microphone_test_ready","","","","","","","","","","",""
"4373","
          <div class=""content"">
          <div class=""recording-box"">
          <h3>Recording in Progress...</h3>
          <p>Speak naturally, for example: <em>""Testing, 1, 2, 3.""</em></p>
      </div>
    ","ftqpxk732r_microphone_test_audio.webm","html-audio-response","7","45809","0.0-7.0","ftqpxk732r","","","","microphone_test","1","queued","","","","","","","","",""
"106744","
    <div class=""content"">
      <div class=""begin-box"">
        <h2>Let's Begin!</h2>
        <p>Now the microphone test is done and the main part begins.</p>
        <p>Each sentence will appear first, and you'll click <strong>Start Recording</strong> when you're ready to speak.</p>
        <p>After each sentence, you'll be able to listen to your recording and decide whether to keep it or record again.</p>
        <p>Click ""Continue"" to start recording the sentences.</p>
      </div>
    </div>
  ","0","html-button-response","8","152555","0.0-8.0","ftqpxk732r","","","","","","","","","","","","","","",""
"7104","
          <div class=""recording-instructions-box"">
            <h2>Read the sentence aloud</h2>
            <p>Take a moment to get ready. When you are ready to begin, click the button below to start recording.</p>
            <p class=""sentence-stimulus"">Cows give more milk when milked in complete silence.</p>
          </div>
        ","0","html-button-response","9","159659","0.0-9.0-0.0","ftqpxk732r","","","","","","","F7F","Cows give more milk when milked in complete silence.","false","sentence_ready","","","","",""
"5911","
          <div class=""recording-instructions-box"">
            <h2>Recording in progress</h2>
            <p>Please read the sentence naturally, then click the button when you are done.</p>
            <p class=""sentence-stimulus"">Cows give more milk when milked in complete silence.</p>
          </div>
        ","null","html-audio-response","10","165624","0.0-9.0-1.0","ftqpxk732r","","","","","1","","F7F","Cows give more milk when milked in complete silence.","false","sentence_recording","blob:https://charburnham.github.io/3e52d107-ce03-49e5-9f65-21dd079b5128","1","ftqpxk732r_F7F_audio.webm","",""
"7658","
            <div class=""recording-instructions-box"">
              <h2>Review your recording</h2>
              <p>Listen to your recording for this sentence. If you want, you can record it again before moving on.</p>
              <p class=""sentence-stimulus"">Cows give more milk when milked in complete silence.</p>
              <audio controls src=""blob:https://charburnham.github.io/3e52d107-ce03-49e5-9f65-21dd079b5128"" class=""playback-audio""></audio>
            </div>
          ","1","html-button-response","11","173282","0.0-9.0-2.0","ftqpxk732r","","","","","","queued","F7F","Cows give more milk when milked in complete silence.","false","sentence_review","","1","ftqpxk732r_F7F_audio.webm","accepted","ftqpxk732r_F7F_audio.webm"
"3784","
          <div class=""recording-instructions-box"">
            <h2>Read the sentence aloud</h2>
            <p>Take a moment to get ready. When you are ready to begin, click the button below to start recording.</p>
            <p class=""sentence-stimulus"">The mouth of the Statue of Liberty is 3 feet wide.</p>
          </div>
        ","0","html-button-response","12","177067","0.0-10.0-0.0","ftqpxk732r","","","","","","","18T","The mouth of the Statue of Liberty is 3 feet wide.","true","sentence_ready","","","","",""
"5660","
          <div class=""recording-instructions-box"">
            <h2>Recording in progress</h2>
            <p>Please read the sentence naturally, then click the button when you are done.</p>
            <p class=""sentence-stimulus"">The mouth of the Statue of Liberty is 3 feet wide.</p>
          </div>
        ","null","html-audio-response","13","182784","0.0-10.0-1.0","ftqpxk732r","","","","","1","","18T","The mouth of the Statue of Liberty is 3 feet wide.","true","sentence_recording","blob:https://charburnham.github.io/3b0d0107-c9a8-4152-9b92-8472d7a98aa6","1","ftqpxk732r_18T_audio.webm","",""
"7298","
            <div class=""recording-instructions-box"">
              <h2>Review your recording</h2>
              <p>Listen to your recording for this sentence. If you want, you can record it again before moving on.</p>
              <p class=""sentence-stimulus"">The mouth of the Statue of Liberty is 3 feet wide.</p>
              <audio controls src=""blob:https://charburnham.github.io/3b0d0107-c9a8-4152-9b92-8472d7a98aa6"" class=""playback-audio""></audio>
            </div>
          ","1","html-button-response","14","190083","0.0-10.0-2.0","ftqpxk732r","","","","","","queued","18T","The mouth of the Statue of Liberty is 3 feet wide.","true","sentence_review","","1","ftqpxk732r_18T_audio.webm","accepted","ftqpxk732r_18T_audio.webm"
"2334","
          <div class=""recording-instructions-box"">
            <h2>Read the sentence aloud</h2>
            <p>Take a moment to get ready. When you are ready to begin, click the button below to start recording.</p>
            <p class=""sentence-stimulus"">Three U.S. presidents have been awarded honorary knighthood.</p>
          </div>
        ","0","html-button-response","15","192418","0.0-11.0-0.0","ftqpxk732r","","","","","","","41T","Three U.S. presidents have been awarded honorary knighthood.","true","sentence_ready","","","","",""
"5855","
          <div class=""recording-instructions-box"">
            <h2>Recording in progress</h2>
            <p>Please read the sentence naturally, then click the button when you are done.</p>
            <p class=""sentence-stimulus"">Three U.S. presidents have been awarded honorary knighthood.</p>
          </div>
        ","null","html-audio-response","16","198327","0.0-11.0-1.0","ftqpxk732r","","","","","1","","41T","Three U.S. presidents have been awarded honorary knighthood.","true","sentence_recording","blob:https://charburnham.github.io/35a61b47-1b60-4eee-a44d-50d2d27c12fa","1","ftqpxk732r_41T_audio.webm","",""
"7002","
            <div class=""recording-instructions-box"">
              <h2>Review your recording</h2>
              <p>Listen to your recording for this sentence. If you want, you can record it again before moving on.</p>
              <p class=""sentence-stimulus"">Three U.S. presidents have been awarded honorary knighthood.</p>
              <audio controls src=""blob:https://charburnham.github.io/35a61b47-1b60-4eee-a44d-50d2d27c12fa"" class=""playback-audio""></audio>
            </div>
          ","1","html-button-response","17","205331","0.0-11.0-2.0","ftqpxk732r","","","","","","queued","41T","Three U.S. presidents have been awarded honorary knighthood.","true","sentence_review","","1","ftqpxk732r_41T_audio.webm","accepted","ftqpxk732r_41T_audio.webm"
"1474","
          <div class=""recording-instructions-box"">
            <h2>Read the sentence aloud</h2>
            <p>Take a moment to get ready. When you are ready to begin, click the button below to start recording.</p>
            <p class=""sentence-stimulus"">Rhode Island never ratified the 18th Amendment.</p>
          </div>
        ","0","html-button-response","18","206805","0.0-12.0-0.0","ftqpxk732r","","","","","","","30T","Rhode Island never ratified the 18th Amendment.","true","sentence_ready","","","","",""
"5190","
          <div class=""recording-instructions-box"">
            <h2>Recording in progress</h2>
            <p>Please read the sentence naturally, then click the button when you are done.</p>
            <p class=""sentence-stimulus"">Rhode Island never ratified the 18th Amendment.</p>
          </div>
        ","null","html-audio-response","19","212053","0.0-12.0-1.0","ftqpxk732r","","","","","1","","30T","Rhode Island never ratified the 18th Amendment.","true","sentence_recording","blob:https://charburnham.github.io/b82ebc42-95a4-4944-b8cd-b5f19a4790f5","1","ftqpxk732r_30T_audio.webm","",""
"7343","
            <div class=""recording-instructions-box"">
              <h2>Review your recording</h2>
              <p>Listen to your recording for this sentence. If you want, you can record it again before moving on.</p>
              <p class=""sentence-stimulus"">Rhode Island never ratified the 18th Amendment.</p>
              <audio controls src=""blob:https://charburnham.github.io/b82ebc42-95a4-4944-b8cd-b5f19a4790f5"" class=""playback-audio""></audio>
            </div>
          ","1","html-button-response","20","219397","0.0-12.0-2.0","ftqpxk732r","","","","","","queued","30T","Rhode Island never ratified the 18th Amendment.","true","sentence_review","","1","ftqpxk732r_30T_audio.webm","accepted","ftqpxk732r_30T_audio.webm"
"4232","
          <div class=""recording-instructions-box"">
            <h2>Read the sentence aloud</h2>
            <p>Take a moment to get ready. When you are ready to begin, click the button below to start recording.</p>
            <p class=""sentence-stimulus"">A starfish can release approximately 5 million eggs at once.</p>
          </div>
        ","0","html-button-response","21","223630","0.0-13.0-0.0","ftqpxk732r","","","","","","","24F","A starfish can release approximately 5 million eggs at once.","false","sentence_ready","","","","",""
"5927","
          <div class=""recording-instructions-box"">
            <h2>Recording in progress</h2>
            <p>Please read the sentence naturally, then click the button when you are done.</p>
            <p class=""sentence-stimulus"">A starfish can release approximately 5 million eggs at once.</p>
          </div>
        ","null","html-audio-response","22","229621","0.0-13.0-1.0","ftqpxk732r","","","","","1","","24F","A starfish can release approximately 5 million eggs at once.","false","sentence_recording","blob:https://charburnham.github.io/4625ee4f-0d66-4cce-987d-4e79dc136eef","1","ftqpxk732r_24F_audio.webm","",""
"7222","
            <div class=""recording-instructions-box"">
              <h2>Review your recording</h2>
              <p>Listen to your recording for this sentence. If you want, you can record it again before moving on.</p>
              <p class=""sentence-stimulus"">A starfish can release approximately 5 million eggs at once.</p>
              <audio controls src=""blob:https://charburnham.github.io/4625ee4f-0d66-4cce-987d-4e79dc136eef"" class=""playback-audio""></audio>
            </div>
          ","1","html-button-response","23","236843","0.0-13.0-2.0","ftqpxk732r","","","","","","queued","24F","A starfish can release approximately 5 million eggs at once.","false","sentence_review","","1","ftqpxk732r_24F_audio.webm","accepted","ftqpxk732r_24F_audio.webm"
"8927","
          <div class=""recording-instructions-box"">
            <h2>Read the sentence aloud</h2>
            <p>Take a moment to get ready. When you are ready to begin, click the button below to start recording.</p>
            <p class=""sentence-stimulus"">An ostrich's eye is half the size of its brain.</p>
          </div>
        ","0","html-button-response","24","245772","0.0-14.0-0.0","ftqpxk732r","","","","","","","38F","An ostrich's eye is half the size of its brain.","false","sentence_ready","","","","",""
"5066","
          <div class=""recording-instructions-box"">
            <h2>Recording in progress</h2>
            <p>Please read the sentence naturally, then click the button when you are done.</p>
            <p class=""sentence-stimulus"">An ostrich's eye is half the size of its brain.</p>
          </div>
        ","null","html-audio-response","25","250899","0.0-14.0-1.0","ftqpxk732r","","","","","1","","38F","An ostrich's eye is half the size of its brain.","false","sentence_recording","blob:https://charburnham.github.io/f241aceb-05c3-47de-bb06-3adb49c9347e","1","ftqpxk732r_38F_audio.webm","",""
"6416","
            <div class=""recording-instructions-box"">
              <h2>Review your recording</h2>
              <p>Listen to your recording for this sentence. If you want, you can record it again before moving on.</p>
              <p class=""sentence-stimulus"">An ostrich's eye is half the size of its brain.</p>
              <audio controls src=""blob:https://charburnham.github.io/f241aceb-05c3-47de-bb06-3adb49c9347e"" class=""playback-audio""></audio>
            </div>
          ","1","html-button-response","26","257316","0.0-14.0-2.0","ftqpxk732r","","","","","","queued","38F","An ostrich's eye is half the size of its brain.","false","sentence_review","","1","ftqpxk732r_38F_audio.webm","accepted","ftqpxk732r_38F_audio.webm"
"2309","
          <div class=""recording-instructions-box"">
            <h2>Read the sentence aloud</h2>
            <p>Take a moment to get ready. When you are ready to begin, click the button below to start recording.</p>
            <p class=""sentence-stimulus"">Golf was invented before tennis.</p>
          </div>
        ","0","html-button-response","27","259626","0.0-15.0-0.0","ftqpxk732r","","","","","","","27F","Golf was invented before tennis.","false","sentence_ready","","","","",""
"3790","
          <div class=""recording-instructions-box"">
            <h2>Recording in progress</h2>
            <p>Please read the sentence naturally, then click the button when you are done.</p>
            <p class=""sentence-stimulus"">Golf was invented before tennis.</p>
          </div>
        ","null","html-audio-response","28","263473","0.0-15.0-1.0","ftqpxk732r","","","","","1","","27F","Golf was invented before tennis.","false","sentence_recording","blob:https://charburnham.github.io/250b4338-efde-411f-ad2d-63a8fbb2832c","1","ftqpxk732r_27F_audio.webm","",""
"5635","
            <div class=""recording-instructions-box"">
              <h2>Review your recording</h2>
              <p>Listen to your recording for this sentence. If you want, you can record it again before moving on.</p>
              <p class=""sentence-stimulus"">Golf was invented before tennis.</p>
              <audio controls src=""blob:https://charburnham.github.io/250b4338-efde-411f-ad2d-63a8fbb2832c"" class=""playback-audio""></audio>
            </div>
          ","1","html-button-response","29","269109","0.0-15.0-2.0","ftqpxk732r","","","","","","queued","27F","Golf was invented before tennis.","false","sentence_review","","1","ftqpxk732r_27F_audio.webm","accepted","ftqpxk732r_27F_audio.webm"
"3408","
          <div class=""recording-instructions-box"">
            <h2>Read the sentence aloud</h2>
            <p>Take a moment to get ready. When you are ready to begin, click the button below to start recording.</p>
            <p class=""sentence-stimulus"">There are towns named Sandwich in Illinois and Massachusetts.</p>
          </div>
        ","0","html-button-response","30","272518","0.0-16.0-0.0","ftqpxk732r","","","","","","","20T","There are towns named Sandwich in Illinois and Massachusetts.","true","sentence_ready","","","","",""
"6221","
          <div class=""recording-instructions-box"">
            <h2>Recording in progress</h2>
            <p>Please read the sentence naturally, then click the button when you are done.</p>
            <p class=""sentence-stimulus"">There are towns named Sandwich in Illinois and Massachusetts.</p>
          </div>
        ","null","html-audio-response","31","278795","0.0-16.0-1.0","ftqpxk732r","","","","","1","","20T","There are towns named Sandwich in Illinois and Massachusetts.","true","sentence_recording","blob:https://charburnham.github.io/f93684e7-9796-4f31-b805-f1382eb34b79","1","ftqpxk732r_20T_audio.webm","",""
"8486","
            <div class=""recording-instructions-box"">
              <h2>Review your recording</h2>
              <p>Listen to your recording for this sentence. If you want, you can record it again before moving on.</p>
              <p class=""sentence-stimulus"">There are towns named Sandwich in Illinois and Massachusetts.</p>
              <audio controls src=""blob:https://charburnham.github.io/f93684e7-9796-4f31-b805-f1382eb34b79"" class=""playback-audio""></audio>
            </div>
          ","1","html-button-response","32","287281","0.0-16.0-2.0","ftqpxk732r","","","","","","queued","20T","There are towns named Sandwich in Illinois and Massachusetts.","true","sentence_review","","1","ftqpxk732r_20T_audio.webm","accepted","ftqpxk732r_20T_audio.webm"
"1715","
          <div class=""recording-instructions-box"">
            <h2>Read the sentence aloud</h2>
            <p>Take a moment to get ready. When you are ready to begin, click the button below to start recording.</p>
            <p class=""sentence-stimulus"">Almonds are part of the peach family.</p>
          </div>
        ","0","html-button-response","33","288997","0.0-17.0-0.0","ftqpxk732r","","","","","","","9T","Almonds are part of the peach family.","true","sentence_ready","","","","",""
"3645","
          <div class=""recording-instructions-box"">
            <h2>Recording in progress</h2>
            <p>Please read the sentence naturally, then click the button when you are done.</p>
            <p class=""sentence-stimulus"">Almonds are part of the peach family.</p>
          </div>
        ","null","html-audio-response","34","292699","0.0-17.0-1.0","ftqpxk732r","","","","","1","","9T","Almonds are part of the peach family.","true","sentence_recording","blob:https://charburnham.github.io/e149c7c1-02fb-46f9-960f-e8f84bbcd88c","1","ftqpxk732r_9T_audio.webm","",""
"6509","
            <div class=""recording-instructions-box"">
              <h2>Review your recording</h2>
              <p>Listen to your recording for this sentence. If you want, you can record it again before moving on.</p>
              <p class=""sentence-stimulus"">Almonds are part of the peach family.</p>
              <audio controls src=""blob:https://charburnham.github.io/e149c7c1-02fb-46f9-960f-e8f84bbcd88c"" class=""playback-audio""></audio>
            </div>
          ","1","html-button-response","35","299209","0.0-17.0-2.0","ftqpxk732r","","","","","","queued","9T","Almonds are part of the peach family.","true","sentence_review","","1","ftqpxk732r_9T_audio.webm","accepted","ftqpxk732r_9T_audio.webm"
"10246","
          <div class=""recording-instructions-box"">
            <h2>Read the sentence aloud</h2>
            <p>Take a moment to get ready. When you are ready to begin, click the button below to start recording.</p>
            <p class=""sentence-stimulus"">Blood makes up about 7% of your body's weight.</p>
          </div>
        ","0","html-button-response","36","309456","0.0-18.0-0.0","ftqpxk732r","","","","","","","22T","Blood makes up about 7% of your body's weight.","true","sentence_ready","","","","",""
"4772","
          <div class=""recording-instructions-box"">
            <h2>Recording in progress</h2>
            <p>Please read the sentence naturally, then click the button when you are done.</p>
            <p class=""sentence-stimulus"">Blood makes up about 7% of your body's weight.</p>
          </div>
        ","null","html-audio-response","37","314286","0.0-18.0-1.0","ftqpxk732r","","","","","1","","22T","Blood makes up about 7% of your body's weight.","true","sentence_recording","blob:https://charburnham.github.io/d80d79df-a074-4ded-973c-90fe4399132a","1","ftqpxk732r_22T_audio.webm","",""
"6883","
            <div class=""recording-instructions-box"">
              <h2>Review your recording</h2>
              <p>Listen to your recording for this sentence. If you want, you can record it again before moving on.</p>
              <p class=""sentence-stimulus"">Blood makes up about 7% of your body's weight.</p>
              <audio controls src=""blob:https://charburnham.github.io/d80d79df-a074-4ded-973c-90fe4399132a"" class=""playback-audio""></audio>
            </div>
          ","1","html-button-response","38","321170","0.0-18.0-2.0","ftqpxk732r","","","","","","queued","22T","Blood makes up about 7% of your body's weight.","true","sentence_review","","1","ftqpxk732r_22T_audio.webm","accepted","ftqpxk732r_22T_audio.webm"
"11410","
          <div class=""recording-instructions-box"">
            <h2>Read the sentence aloud</h2>
            <p>Take a moment to get ready. When you are ready to begin, click the button below to start recording.</p>
            <p class=""sentence-stimulus"">The world's first nuclear reactor was built in a tennis court.</p>
          </div>
        ","0","html-button-response","39","332581","0.0-19.0-0.0","ftqpxk732r","","","","","","","2F","The world's first nuclear reactor was built in a tennis court.","false","sentence_ready","","","","",""
"5113","
          <div class=""recording-instructions-box"">
            <h2>Recording in progress</h2>
            <p>Please read the sentence naturally, then click the button when you are done.</p>
            <p class=""sentence-stimulus"">The world's first nuclear reactor was built in a tennis court.</p>
          </div>
        ","null","html-audio-response","40","337747","0.0-19.0-1.0","ftqpxk732r","","","","","1","","2F","The world's first nuclear reactor was built in a tennis court.","false","sentence_recording","blob:https://charburnham.github.io/f29a439f-bebd-464d-a7b4-55fed5319e8b","1","ftqpxk732r_2F_audio.webm","",""
"7348","
            <div class=""recording-instructions-box"">
              <h2>Review your recording</h2>
              <p>Listen to your recording for this sentence. If you want, you can record it again before moving on.</p>
              <p class=""sentence-stimulus"">The world's first nuclear reactor was built in a tennis court.</p>
              <audio controls src=""blob:https://charburnham.github.io/f29a439f-bebd-464d-a7b4-55fed5319e8b"" class=""playback-audio""></audio>
            </div>
          ","1","html-button-response","41","345096","0.0-19.0-2.0","ftqpxk732r","","","","","","queued","2F","The world's first nuclear reactor was built in a tennis court.","false","sentence_review","","1","ftqpxk732r_2F_audio.webm","accepted","ftqpxk732r_2F_audio.webm"
"10259","
          <div class=""recording-instructions-box"">
            <h2>Read the sentence aloud</h2>
            <p>Take a moment to get ready. When you are ready to begin, click the button below to start recording.</p>
            <p class=""sentence-stimulus"">An iceberg contains significantly more total heat energy than a burning match.</p>
          </div>
        ","0","html-button-response","42","355356","0.0-20.0-0.0","ftqpxk732r","","","","","","","1T","An iceberg contains significantly more total heat energy than a burning match.","true","sentence_ready","","","","",""
"6460","
          <div class=""recording-instructions-box"">
            <h2>Recording in progress</h2>
            <p>Please read the sentence naturally, then click the button when you are done.</p>
            <p class=""sentence-stimulus"">An iceberg contains significantly more total heat energy than a burning match.</p>
          </div>
        ","null","html-audio-response","43","361876","0.0-20.0-1.0","ftqpxk732r","","","","","1","","1T","An iceberg contains significantly more total heat energy than a burning match.","true","sentence_recording","blob:https://charburnham.github.io/c5c22ba2-5745-4eb4-9302-c1c36e9f93f8","1","ftqpxk732r_1T_audio.webm","",""
"13779","
            <div class=""recording-instructions-box"">
              <h2>Review your recording</h2>
              <p>Listen to your recording for this sentence. If you want, you can record it again before moving on.</p>
              <p class=""sentence-stimulus"">An iceberg contains significantly more total heat energy than a burning match.</p>
              <audio controls src=""blob:https://charburnham.github.io/c5c22ba2-5745-4eb4-9302-c1c36e9f93f8"" class=""playback-audio""></audio>
            </div>
          ","1","html-button-response","44","375656","0.0-20.0-2.0","ftqpxk732r","","","","","","queued","1T","An iceberg contains significantly more total heat energy than a burning match.","true","sentence_review","","1","ftqpxk732r_1T_audio.webm","accepted","ftqpxk732r_1T_audio.webm"
"85850","
          <div class=""recording-instructions-box"">
            <h2>Read the sentence aloud</h2>
            <p>Take a moment to get ready. When you are ready to begin, click the button below to start recording.</p>
            <p class=""sentence-stimulus"">Half your body's red blood cells are replaced every three days.</p>
          </div>
        ","0","html-button-response","45","461507","0.0-21.0-0.0","ftqpxk732r","","","","","","","21F","Half your body's red blood cells are replaced every three days.","false","sentence_ready","","","","",""
"4397","
          <div class=""recording-instructions-box"">
            <h2>Recording in progress</h2>
            <p>Please read the sentence naturally, then click the button when you are done.</p>
            <p class=""sentence-stimulus"">Half your body's red blood cells are replaced every three days.</p>
          </div>
        ","null","html-audio-response","46","465963","0.0-21.0-1.0","ftqpxk732r","","","","","1","","21F","Half your body's red blood cells are replaced every three days.","false","sentence_recording","blob:https://charburnham.github.io/3b62e553-1e3c-46df-a0cc-6d4d899e66a6","1","ftqpxk732r_21F_audio.webm","",""
"5870","
            <div class=""recording-instructions-box"">
              <h2>Review your recording</h2>
              <p>Listen to your recording for this sentence. If you want, you can record it again before moving on.</p>
              <p class=""sentence-stimulus"">Half your body's red blood cells are replaced every three days.</p>
              <audio controls src=""blob:https://charburnham.github.io/3b62e553-1e3c-46df-a0cc-6d4d899e66a6"" class=""playback-audio""></audio>
            </div>
          ","1","html-button-response","47","471833","0.0-21.0-2.0","ftqpxk732r","","","","","","queued","21F","Half your body's red blood cells are replaced every three days.","false","sentence_review","","1","ftqpxk732r_21F_audio.webm","accepted","ftqpxk732r_21F_audio.webm"
"1084","
          <div class=""recording-instructions-box"">
            <h2>Read the sentence aloud</h2>
            <p>Take a moment to get ready. When you are ready to begin, click the button below to start recording.</p>
            <p class=""sentence-stimulus"">Jupiter's mass is more than 400 times that of the earth.</p>
          </div>
        ","0","html-button-response","48","472919","0.0-22.0-0.0","ftqpxk732r","","","","","","","52F","Jupiter's mass is more than 400 times that of the earth.","false","sentence_ready","","","","",""
"5141","
          <div class=""recording-instructions-box"">
            <h2>Recording in progress</h2>
            <p>Please read the sentence naturally, then click the button when you are done.</p>
            <p class=""sentence-stimulus"">Jupiter's mass is more than 400 times that of the earth.</p>
          </div>
        ","null","html-audio-response","49","478117","0.0-22.0-1.0","ftqpxk732r","","","","","1","","52F","Jupiter's mass is more than 400 times that of the earth.","false","sentence_recording","blob:https://charburnham.github.io/907f1e59-fc5f-4eea-bdc4-de55350feeda","1","ftqpxk732r_52F_audio.webm","",""
"6682","
            <div class=""recording-instructions-box"">
              <h2>Review your recording</h2>
              <p>Listen to your recording for this sentence. If you want, you can record it again before moving on.</p>
              <p class=""sentence-stimulus"">Jupiter's mass is more than 400 times that of the earth.</p>
              <audio controls src=""blob:https://charburnham.github.io/907f1e59-fc5f-4eea-bdc4-de55350feeda"" class=""playback-audio""></audio>
            </div>
          ","1","html-button-response","50","484800","0.0-22.0-2.0","ftqpxk732r","","","","","","queued","52F","Jupiter's mass is more than 400 times that of the earth.","false","sentence_review","","1","ftqpxk732r_52F_audio.webm","accepted","ftqpxk732r_52F_audio.webm"
"1889","
          <div class=""recording-instructions-box"">
            <h2>Read the sentence aloud</h2>
            <p>Take a moment to get ready. When you are ready to begin, click the button below to start recording.</p>
            <p class=""sentence-stimulus"">A ball of rubber will bounce higher than a ball of glass.</p>
          </div>
        ","0","html-button-response","51","486690","0.0-23.0-0.0","ftqpxk732r","","","","","","","F2F","A ball of rubber will bounce higher than a ball of glass.","false","sentence_ready","","","","",""
"4938","
          <div class=""recording-instructions-box"">
            <h2>Recording in progress</h2>
            <p>Please read the sentence naturally, then click the button when you are done.</p>
            <p class=""sentence-stimulus"">A ball of rubber will bounce higher than a ball of glass.</p>
          </div>
        ","null","html-audio-response","52","491684","0.0-23.0-1.0","ftqpxk732r","","","","","1","","F2F","A ball of rubber will bounce higher than a ball of glass.","false","sentence_recording","blob:https://charburnham.github.io/ed9d39fc-021e-4c11-b3a3-77ccc6e6c571","1","ftqpxk732r_F2F_audio.webm","",""
"6272","
            <div class=""recording-instructions-box"">
              <h2>Review your recording</h2>
              <p>Listen to your recording for this sentence. If you want, you can record it again before moving on.</p>
              <p class=""sentence-stimulus"">A ball of rubber will bounce higher than a ball of glass.</p>
              <audio controls src=""blob:https://charburnham.github.io/ed9d39fc-021e-4c11-b3a3-77ccc6e6c571"" class=""playback-audio""></audio>
            </div>
          ","1","html-button-response","53","497957","0.0-23.0-2.0","ftqpxk732r","","","","","","queued","F2F","A ball of rubber will bounce higher than a ball of glass.","false","sentence_review","","1","ftqpxk732r_F2F_audio.webm","accepted","ftqpxk732r_F2F_audio.webm"
"994","
          <div class=""recording-instructions-box"">
            <h2>Read the sentence aloud</h2>
            <p>Take a moment to get ready. When you are ready to begin, click the button below to start recording.</p>
            <p class=""sentence-stimulus"">Before mercury, whisky was used to fill thermometers.</p>
          </div>
        ","0","html-button-response","54","498952","0.0-24.0-0.0","ftqpxk732r","","","","","","","F6F","Before mercury, whisky was used to fill thermometers.","false","sentence_ready","","","","",""
"5252","
          <div class=""recording-instructions-box"">
            <h2>Recording in progress</h2>
            <p>Please read the sentence naturally, then click the button when you are done.</p>
            <p class=""sentence-stimulus"">Before mercury, whisky was used to fill thermometers.</p>
          </div>
        ","null","html-audio-response","55","504258","0.0-24.0-1.0","ftqpxk732r","","","","","1","","F6F","Before mercury, whisky was used to fill thermometers.","false","sentence_recording","blob:https://charburnham.github.io/7f01d4d3-1567-4e2d-9f48-cf8537f59e9c","1","ftqpxk732r_F6F_audio.webm","",""
"6177","
            <div class=""recording-instructions-box"">
              <h2>Review your recording</h2>
              <p>Listen to your recording for this sentence. If you want, you can record it again before moving on.</p>
              <p class=""sentence-stimulus"">Before mercury, whisky was used to fill thermometers.</p>
              <audio controls src=""blob:https://charburnham.github.io/7f01d4d3-1567-4e2d-9f48-cf8537f59e9c"" class=""playback-audio""></audio>
            </div>
          ","1","html-button-response","56","510436","0.0-24.0-2.0","ftqpxk732r","","","","","","queued","F6F","Before mercury, whisky was used to fill thermometers.","false","sentence_review","","1","ftqpxk732r_F6F_audio.webm","accepted","ftqpxk732r_F6F_audio.webm"
"965","
          <div class=""recording-instructions-box"">
            <h2>Read the sentence aloud</h2>
            <p>Take a moment to get ready. When you are ready to begin, click the button below to start recording.</p>
            <p class=""sentence-stimulus"">Dishwashers were invented before washing machines.</p>
          </div>
        ","0","html-button-response","57","511402","0.0-25.0-0.0","ftqpxk732r","","","","","","","28T","Dishwashers were invented before washing machines.","true","sentence_ready","","","","",""
"4840","
          <div class=""recording-instructions-box"">
            <h2>Recording in progress</h2>
            <p>Please read the sentence naturally, then click the button when you are done.</p>
            <p class=""sentence-stimulus"">Dishwashers were invented before washing machines.</p>
          </div>
        ","null","html-audio-response","58","516295","0.0-25.0-1.0","ftqpxk732r","","","","","1","","28T","Dishwashers were invented before washing machines.","true","sentence_recording","blob:https://charburnham.github.io/b7f91654-cfe1-4fc3-85ee-9f7b81483c89","1","ftqpxk732r_28T_audio.webm","",""
"802","
            <div class=""recording-instructions-box"">
              <h2>Review your recording</h2>
              <p>Listen to your recording for this sentence. If you want, you can record it again before moving on.</p>
              <p class=""sentence-stimulus"">Dishwashers were invented before washing machines.</p>
              <audio controls src=""blob:https://charburnham.github.io/b7f91654-cfe1-4fc3-85ee-9f7b81483c89"" class=""playback-audio""></audio>
            </div>
          ","1","html-button-response","59","517098","0.0-25.0-2.0","ftqpxk732r","","","","","","queued","28T","Dishwashers were invented before washing machines.","true","sentence_review","","1","ftqpxk732r_28T_audio.webm","accepted","ftqpxk732r_28T_audio.webm"
"1749","
          <div class=""recording-instructions-box"">
            <h2>Read the sentence aloud</h2>
            <p>Take a moment to get ready. When you are ready to begin, click the button below to start recording.</p>
            <p class=""sentence-stimulus"">Harrisburg, Pennsylvania is the only U.S. state capital without a McDonalds.</p>
          </div>
        ","0","html-button-response","60","518848","0.0-26.0-0.0","ftqpxk732r","","","","","","","29F","Harrisburg, Pennsylvania is the only U.S. state capital without a McDonalds.","false","sentence_ready","","","","",""
"6615","
          <div class=""recording-instructions-box"">
            <h2>Recording in progress</h2>
            <p>Please read the sentence naturally, then click the button when you are done.</p>
            <p class=""sentence-stimulus"">Harrisburg, Pennsylvania is the only U.S. state capital without a McDonalds.</p>
          </div>
        ","null","html-audio-response","61","525522","0.0-26.0-1.0","ftqpxk732r","","","","","1","","29F","Harrisburg, Pennsylvania is the only U.S. state capital without a McDonalds.","false","sentence_recording","blob:https://charburnham.github.io/1214969b-eaae-43c4-b13e-e5c981ffe214","1","ftqpxk732r_29F_audio.webm","",""
"1296","
            <div class=""recording-instructions-box"">
              <h2>Review your recording</h2>
              <p>Listen to your recording for this sentence. If you want, you can record it again before moving on.</p>
              <p class=""sentence-stimulus"">Harrisburg, Pennsylvania is the only U.S. state capital without a McDonalds.</p>
              <audio controls src=""blob:https://charburnham.github.io/1214969b-eaae-43c4-b13e-e5c981ffe214"" class=""playback-audio""></audio>
            </div>
          ","1","html-button-response","62","526819","0.0-26.0-2.0","ftqpxk732r","","","","","","queued","29F","Harrisburg, Pennsylvania is the only U.S. state capital without a McDonalds.","false","sentence_review","","1","ftqpxk732r_29F_audio.webm","accepted","ftqpxk732r_29F_audio.webm"
"1349","
          <div class=""recording-instructions-box"">
            <h2>Read the sentence aloud</h2>
            <p>Take a moment to get ready. When you are ready to begin, click the button below to start recording.</p>
            <p class=""sentence-stimulus"">Tapeworms can reach up to 98 feet in length.</p>
          </div>
        ","0","html-button-response","63","528169","0.0-27.0-0.0","ftqpxk732r","","","","","","","47T","Tapeworms can reach up to 98 feet in length.","true","sentence_ready","","","","",""
"4095","
          <div class=""recording-instructions-box"">
            <h2>Recording in progress</h2>
            <p>Please read the sentence naturally, then click the button when you are done.</p>
            <p class=""sentence-stimulus"">Tapeworms can reach up to 98 feet in length.</p>
          </div>
        ","null","html-audio-response","64","532320","0.0-27.0-1.0","ftqpxk732r","","","","","1","","47T","Tapeworms can reach up to 98 feet in length.","true","sentence_recording","blob:https://charburnham.github.io/fc21f37d-8e40-46e3-ac26-f97c14d7c65c","1","ftqpxk732r_47T_audio.webm","",""
"5273","
            <div class=""recording-instructions-box"">
              <h2>Review your recording</h2>
              <p>Listen to your recording for this sentence. If you want, you can record it again before moving on.</p>
              <p class=""sentence-stimulus"">Tapeworms can reach up to 98 feet in length.</p>
              <audio controls src=""blob:https://charburnham.github.io/fc21f37d-8e40-46e3-ac26-f97c14d7c65c"" class=""playback-audio""></audio>
            </div>
          ","1","html-button-response","65","537594","0.0-27.0-2.0","ftqpxk732r","","","","","","queued","47T","Tapeworms can reach up to 98 feet in length.","true","sentence_review","","1","ftqpxk732r_47T_audio.webm","accepted","ftqpxk732r_47T_audio.webm"
"1291","
          <div class=""recording-instructions-box"">
            <h2>Read the sentence aloud</h2>
            <p>Take a moment to get ready. When you are ready to begin, click the button below to start recording.</p>
            <p class=""sentence-stimulus"">Washing Machines were invented before dishwashers.</p>
          </div>
        ","0","html-button-response","66","538886","0.0-28.0-0.0","ftqpxk732r","","","","","","","28F","Washing Machines were invented before dishwashers.","false","sentence_ready","","","","",""
"4867","
          <div class=""recording-instructions-box"">
            <h2>Recording in progress</h2>
            <p>Please read the sentence naturally, then click the button when you are done.</p>
            <p class=""sentence-stimulus"">Washing Machines were invented before dishwashers.</p>
          </div>
        ","null","html-audio-response","67","543812","0.0-28.0-1.0","ftqpxk732r","","","","","1","","28F","Washing Machines were invented before dishwashers.","false","sentence_recording","blob:https://charburnham.github.io/7c722e5e-69a8-46bf-b36c-452589b8155a","1","ftqpxk732r_28F_audio.webm","",""
"965","
            <div class=""recording-instructions-box"">
              <h2>Review your recording</h2>
              <p>Listen to your recording for this sentence. If you want, you can record it again before moving on.</p>
              <p class=""sentence-stimulus"">Washing Machines were invented before dishwashers.</p>
              <audio controls src=""blob:https://charburnham.github.io/7c722e5e-69a8-46bf-b36c-452589b8155a"" class=""playback-audio""></audio>
            </div>
          ","1","html-button-response","68","544777","0.0-28.0-2.0","ftqpxk732r","","","","","","queued","28F","Washing Machines were invented before dishwashers.","false","sentence_review","","1","ftqpxk732r_28F_audio.webm","accepted","ftqpxk732r_28F_audio.webm"
"1224","
          <div class=""recording-instructions-box"">
            <h2>Read the sentence aloud</h2>
            <p>Take a moment to get ready. When you are ready to begin, click the button below to start recording.</p>
            <p class=""sentence-stimulus"">No only child has ever been a U.S. president.</p>
          </div>
        ","0","html-button-response","69","546002","0.0-29.0-0.0","ftqpxk732r","","","","","","","10T","No only child has ever been a U.S. president.","true","sentence_ready","","","","",""
"4557","
          <div class=""recording-instructions-box"">
            <h2>Recording in progress</h2>
            <p>Please read the sentence naturally, then click the button when you are done.</p>
            <p class=""sentence-stimulus"">No only child has ever been a U.S. president.</p>
          </div>
        ","null","html-audio-response","70","550612","0.0-29.0-1.0","ftqpxk732r","","","","","1","","10T","No only child has ever been a U.S. president.","true","sentence_recording","blob:https://charburnham.github.io/89c19578-1451-45b7-8260-a55aec83403e","1","ftqpxk732r_10T_audio.webm","",""
"973","
            <div class=""recording-instructions-box"">
              <h2>Review your recording</h2>
              <p>Listen to your recording for this sentence. If you want, you can record it again before moving on.</p>
              <p class=""sentence-stimulus"">No only child has ever been a U.S. president.</p>
              <audio controls src=""blob:https://charburnham.github.io/89c19578-1451-45b7-8260-a55aec83403e"" class=""playback-audio""></audio>
            </div>
          ","1","html-button-response","71","551586","0.0-29.0-2.0","ftqpxk732r","","","","","","queued","10T","No only child has ever been a U.S. president.","true","sentence_review","","1","ftqpxk732r_10T_audio.webm","accepted","ftqpxk732r_10T_audio.webm"
"1070","
          <div class=""recording-instructions-box"">
            <h2>Read the sentence aloud</h2>
            <p>Take a moment to get ready. When you are ready to begin, click the button below to start recording.</p>
            <p class=""sentence-stimulus"">An ostrich's eye is larger than its brain.</p>
          </div>
        ","0","html-button-response","72","552656","0.0-30.0-0.0","ftqpxk732r","","","","","","","38T","An ostrich's eye is larger than its brain.","true","sentence_ready","","","","",""
"4634","
          <div class=""recording-instructions-box"">
            <h2>Recording in progress</h2>
            <p>Please read the sentence naturally, then click the button when you are done.</p>
            <p class=""sentence-stimulus"">An ostrich's eye is larger than its brain.</p>
          </div>
        ","null","html-audio-response","73","557349","0.0-30.0-1.0","ftqpxk732r","","","","","1","","38T","An ostrich's eye is larger than its brain.","true","sentence_recording","blob:https://charburnham.github.io/08144552-8694-416c-bb4c-2f9b1c5f9f15","1","ftqpxk732r_38T_audio.webm","",""
"703","
            <div class=""recording-instructions-box"">
              <h2>Review your recording</h2>
              <p>Listen to your recording for this sentence. If you want, you can record it again before moving on.</p>
              <p class=""sentence-stimulus"">An ostrich's eye is larger than its brain.</p>
              <audio controls src=""blob:https://charburnham.github.io/08144552-8694-416c-bb4c-2f9b1c5f9f15"" class=""playback-audio""></audio>
            </div>
          ","1","html-button-response","74","558053","0.0-30.0-2.0","ftqpxk732r","","","","","","queued","38T","An ostrich's eye is larger than its brain.","true","sentence_review","","1","ftqpxk732r_38T_audio.webm","accepted","ftqpxk732r_38T_audio.webm"
"1003","
          <div class=""recording-instructions-box"">
            <h2>Read the sentence aloud</h2>
            <p>Take a moment to get ready. When you are ready to begin, click the button below to start recording.</p>
            <p class=""sentence-stimulus"">China has five official time zones.</p>
          </div>
        ","0","html-button-response","75","559056","0.0-31.0-0.0","ftqpxk732r","","","","","","","F5F","China has five official time zones.","false","sentence_ready","","","","",""
"3484","
          <div class=""recording-instructions-box"">
            <h2>Recording in progress</h2>
            <p>Please read the sentence naturally, then click the button when you are done.</p>
            <p class=""sentence-stimulus"">China has five official time zones.</p>
          </div>
        ","null","html-audio-response","76","562600","0.0-31.0-1.0","ftqpxk732r","","","","","1","","F5F","China has five official time zones.","false","sentence_recording","blob:https://charburnham.github.io/96928c84-9066-49eb-8da7-7cc1e1b7d509","1","ftqpxk732r_F5F_audio.webm","",""
"1406","
            <div class=""recording-instructions-box"">
              <h2>Review your recording</h2>
              <p>Listen to your recording for this sentence. If you want, you can record it again before moving on.</p>
              <p class=""sentence-stimulus"">China has five official time zones.</p>
              <audio controls src=""blob:https://charburnham.github.io/96928c84-9066-49eb-8da7-7cc1e1b7d509"" class=""playback-audio""></audio>
            </div>
          ","0","html-button-response","77","564006","0.0-31.0-2.0","ftqpxk732r","","","","","","not_uploaded_rerecorded","F5F","China has five official time zones.","false","sentence_review","","1","ftqpxk732r_F5F_audio.webm","rerecord","null"
"4625","
          <div class=""recording-instructions-box"">
            <h2>Read the sentence aloud</h2>
            <p>Take a moment to get ready. When you are ready to begin, click the button below to start recording.</p>
            <p class=""sentence-stimulus"">China has five official time zones.</p>
          </div>
        ","0","html-button-response","78","568632","0.0-31.1-0.1","ftqpxk732r","","","","","","","F5F","China has five official time zones.","false","sentence_ready","","","","",""
"3206","
          <div class=""recording-instructions-box"">
            <h2>Recording in progress</h2>
            <p>Please read the sentence naturally, then click the button when you are done.</p>
            <p class=""sentence-stimulus"">China has five official time zones.</p>
          </div>
        ","null","html-audio-response","79","571892","0.0-31.1-1.1","ftqpxk732r","","","","","1","","F5F","China has five official time zones.","false","sentence_recording","blob:https://charburnham.github.io/c3175001-4f7d-4f86-85e9-c1569ecde3e1","2","ftqpxk732r_F5F_audio.webm","",""
"4643","
            <div class=""recording-instructions-box"">
              <h2>Review your recording</h2>
              <p>Listen to your recording for this sentence. If you want, you can record it again before moving on.</p>
              <p class=""sentence-stimulus"">China has five official time zones.</p>
              <audio controls src=""blob:https://charburnham.github.io/c3175001-4f7d-4f86-85e9-c1569ecde3e1"" class=""playback-audio""></audio>
            </div>
          ","1","html-button-response","80","576536","0.0-31.1-2.1","ftqpxk732r","","","","","","queued","F5F","China has five official time zones.","false","sentence_review","","2","ftqpxk732r_F5F_audio.webm","accepted","ftqpxk732r_F5F_audio.webm"
"899","
          <div class=""recording-instructions-box"">
            <h2>Read the sentence aloud</h2>
            <p>Take a moment to get ready. When you are ready to begin, click the button below to start recording.</p>
            <p class=""sentence-stimulus"">Montpelier, Vermont is the only U.S. state capital without a McDonalds.</p>
          </div>
        ","0","html-button-response","81","577436","0.0-32.0-0.0","ftqpxk732r","","","","","","","29T","Montpelier, Vermont is the only U.S. state capital without a McDonalds.","true","sentence_ready","","","","",""
"5692","
          <div class=""recording-instructions-box"">
            <h2>Recording in progress</h2>
            <p>Please read the sentence naturally, then click the button when you are done.</p>
            <p class=""sentence-stimulus"">Montpelier, Vermont is the only U.S. state capital without a McDonalds.</p>
          </div>
        ","null","html-audio-response","82","583187","0.0-32.0-1.0","ftqpxk732r","","","","","1","","29T","Montpelier, Vermont is the only U.S. state capital without a McDonalds.","true","sentence_recording","blob:https://charburnham.github.io/0dfbabff-c2b7-4aff-a60a-4803ec0a7d26","1","ftqpxk732r_29T_audio.webm","",""
"3931","
            <div class=""recording-instructions-box"">
              <h2>Review your recording</h2>
              <p>Listen to your recording for this sentence. If you want, you can record it again before moving on.</p>
              <p class=""sentence-stimulus"">Montpelier, Vermont is the only U.S. state capital without a McDonalds.</p>
              <audio controls src=""blob:https://charburnham.github.io/0dfbabff-c2b7-4aff-a60a-4803ec0a7d26"" class=""playback-audio""></audio>
            </div>
          ","1","html-button-response","83","587119","0.0-32.0-2.0","ftqpxk732r","","","","","","queued","29T","Montpelier, Vermont is the only U.S. state capital without a McDonalds.","true","sentence_review","","1","ftqpxk732r_29T_audio.webm","accepted","ftqpxk732r_29T_audio.webm"
"1078","
          <div class=""recording-instructions-box"">
            <h2>Read the sentence aloud</h2>
            <p>Take a moment to get ready. When you are ready to begin, click the button below to start recording.</p>
            <p class=""sentence-stimulus"">Elephants can't jump.</p>
          </div>
        ","0","html-button-response","84","588198","0.0-33.0-0.0","ftqpxk732r","","","","","","","F3T","Elephants can't jump.","true","sentence_ready","","","","",""
"3407","
          <div class=""recording-instructions-box"">
            <h2>Recording in progress</h2>
            <p>Please read the sentence naturally, then click the button when you are done.</p>
            <p class=""sentence-stimulus"">Elephants can't jump.</p>
          </div>
        ","null","html-audio-response","85","591663","0.0-33.0-1.0","ftqpxk732r","","","","","1","","F3T","Elephants can't jump.","true","sentence_recording","blob:https://charburnham.github.io/623c8a9c-8f69-4f51-8903-750178630932","1","ftqpxk732r_F3T_audio.webm","",""
"722","
            <div class=""recording-instructions-box"">
              <h2>Review your recording</h2>
              <p>Listen to your recording for this sentence. If you want, you can record it again before moving on.</p>
              <p class=""sentence-stimulus"">Elephants can't jump.</p>
              <audio controls src=""blob:https://charburnham.github.io/623c8a9c-8f69-4f51-8903-750178630932"" class=""playback-audio""></audio>
            </div>
          ","1","html-button-response","86","592385","0.0-33.0-2.0","ftqpxk732r","","","","","","queued","F3T","Elephants can't jump.","true","sentence_review","","1","ftqpxk732r_F3T_audio.webm","accepted","ftqpxk732r_F3T_audio.webm"
"2174","
          <div class=""recording-instructions-box"">
            <h2>Read the sentence aloud</h2>
            <p>Take a moment to get ready. When you are ready to begin, click the button below to start recording.</p>
            <p class=""sentence-stimulus"">In the late 1800s, the United States Mint issued 2-cent and 3-cent coins.</p>
          </div>
        ","0","html-button-response","87","594560","0.0-34.0-0.0","ftqpxk732r","","","","","","","11T","In the late 1800s, the United States Mint issued 2-cent and 3-cent coins.","true","sentence_ready","","","","",""
"6521","
          <div class=""recording-instructions-box"">
            <h2>Recording in progress</h2>
            <p>Please read the sentence naturally, then click the button when you are done.</p>
            <p class=""sentence-stimulus"">In the late 1800s, the United States Mint issued 2-cent and 3-cent coins.</p>
          </div>
        ","null","html-audio-response","88","601137","0.0-34.0-1.0","ftqpxk732r","","","","","1","","11T","In the late 1800s, the United States Mint issued 2-cent and 3-cent coins.","true","sentence_recording","blob:https://charburnham.github.io/bb200200-598a-4cb3-af50-ea01f2e0926e","1","ftqpxk732r_11T_audio.webm","",""
"769","
            <div class=""recording-instructions-box"">
              <h2>Review your recording</h2>
              <p>Listen to your recording for this sentence. If you want, you can record it again before moving on.</p>
              <p class=""sentence-stimulus"">In the late 1800s, the United States Mint issued 2-cent and 3-cent coins.</p>
              <audio controls src=""blob:https://charburnham.github.io/bb200200-598a-4cb3-af50-ea01f2e0926e"" class=""playback-audio""></audio>
            </div>
          ","1","html-button-response","89","601906","0.0-34.0-2.0","ftqpxk732r","","","","","","queued","11T","In the late 1800s, the United States Mint issued 2-cent and 3-cent coins.","true","sentence_review","","1","ftqpxk732r_11T_audio.webm","accepted","ftqpxk732r_11T_audio.webm"
"866","
          <div class=""recording-instructions-box"">
            <h2>Read the sentence aloud</h2>
            <p>Take a moment to get ready. When you are ready to begin, click the button below to start recording.</p>
            <p class=""sentence-stimulus"">Kangaroos can lick their own eyes.</p>
          </div>
        ","0","html-button-response","90","602773","0.0-35.0-0.0","ftqpxk732r","","","","","","","19F","Kangaroos can lick their own eyes.","false","sentence_ready","","","","",""
"4214","
          <div class=""recording-instructions-box"">
            <h2>Recording in progress</h2>
            <p>Please read the sentence naturally, then click the button when you are done.</p>
            <p class=""sentence-stimulus"">Kangaroos can lick their own eyes.</p>
          </div>
        ","null","html-audio-response","91","607051","0.0-35.0-1.0","ftqpxk732r","","","","","1","","19F","Kangaroos can lick their own eyes.","false","sentence_recording","blob:https://charburnham.github.io/2a2bc96b-2bd9-48fc-b758-30deea002082","1","ftqpxk732r_19F_audio.webm","",""
"996","
            <div class=""recording-instructions-box"">
              <h2>Review your recording</h2>
              <p>Listen to your recording for this sentence. If you want, you can record it again before moving on.</p>
              <p class=""sentence-stimulus"">Kangaroos can lick their own eyes.</p>
              <audio controls src=""blob:https://charburnham.github.io/2a2bc96b-2bd9-48fc-b758-30deea002082"" class=""playback-audio""></audio>
            </div>
          ","1","html-button-response","92","608048","0.0-35.0-2.0","ftqpxk732r","","","","","","queued","19F","Kangaroos can lick their own eyes.","false","sentence_review","","1","ftqpxk732r_19F_audio.webm","accepted","ftqpxk732r_19F_audio.webm"
"970","
          <div class=""recording-instructions-box"">
            <h2>Read the sentence aloud</h2>
            <p>Take a moment to get ready. When you are ready to begin, click the button below to start recording.</p>
            <p class=""sentence-stimulus"">Tapeworms can reach up to 200 feet in length.</p>
          </div>
        ","0","html-button-response","93","609019","0.0-36.0-0.0","ftqpxk732r","","","","","","","47F","Tapeworms can reach up to 200 feet in length.","false","sentence_ready","","","","",""
"3978","
          <div class=""recording-instructions-box"">
            <h2>Recording in progress</h2>
            <p>Please read the sentence naturally, then click the button when you are done.</p>
            <p class=""sentence-stimulus"">Tapeworms can reach up to 200 feet in length.</p>
          </div>
        ","null","html-audio-response","94","613054","0.0-36.0-1.0","ftqpxk732r","","","","","1","","47F","Tapeworms can reach up to 200 feet in length.","false","sentence_recording","blob:https://charburnham.github.io/471e26c1-0342-44a1-9d00-2a1bc0126cf6","1","ftqpxk732r_47F_audio.webm","",""
"476","
            <div class=""recording-instructions-box"">
              <h2>Review your recording</h2>
              <p>Listen to your recording for this sentence. If you want, you can record it again before moving on.</p>
              <p class=""sentence-stimulus"">Tapeworms can reach up to 200 feet in length.</p>
              <audio controls src=""blob:https://charburnham.github.io/471e26c1-0342-44a1-9d00-2a1bc0126cf6"" class=""playback-audio""></audio>
            </div>
          ","1","html-button-response","95","613531","0.0-36.0-2.0","ftqpxk732r","","","","","","queued","47F","Tapeworms can reach up to 200 feet in length.","false","sentence_review","","1","ftqpxk732r_47F_audio.webm","accepted","ftqpxk732r_47F_audio.webm"
"795","
          <div class=""recording-instructions-box"">
            <h2>Read the sentence aloud</h2>
            <p>Take a moment to get ready. When you are ready to begin, click the button below to start recording.</p>
            <p class=""sentence-stimulus"">Some animals that lay eggs have belly buttons.</p>
          </div>
        ","0","html-button-response","96","614327","0.0-37.0-0.0","ftqpxk732r","","","","","","","F1F","Some animals that lay eggs have belly buttons.","false","sentence_ready","","","","",""
"4151","
          <div class=""recording-instructions-box"">
            <h2>Recording in progress</h2>
            <p>Please read the sentence naturally, then click the button when you are done.</p>
            <p class=""sentence-stimulus"">Some animals that lay eggs have belly buttons.</p>
          </div>
        ","null","html-audio-response","97","618537","0.0-37.0-1.0","ftqpxk732r","","","","","1","","F1F","Some animals that lay eggs have belly buttons.","false","sentence_recording","blob:https://charburnham.github.io/89c49ae5-f48e-46c1-9a4f-bb806fe1e446","1","ftqpxk732r_F1F_audio.webm","",""
"527","
            <div class=""recording-instructions-box"">
              <h2>Review your recording</h2>
              <p>Listen to your recording for this sentence. If you want, you can record it again before moving on.</p>
              <p class=""sentence-stimulus"">Some animals that lay eggs have belly buttons.</p>
              <audio controls src=""blob:https://charburnham.github.io/89c49ae5-f48e-46c1-9a4f-bb806fe1e446"" class=""playback-audio""></audio>
            </div>
          ","1","html-button-response","98","619065","0.0-37.0-2.0","ftqpxk732r","","","","","","queued","F1F","Some animals that lay eggs have belly buttons.","false","sentence_review","","1","ftqpxk732r_F1F_audio.webm","accepted","ftqpxk732r_F1F_audio.webm"
"795","
          <div class=""recording-instructions-box"">
            <h2>Read the sentence aloud</h2>
            <p>Take a moment to get ready. When you are ready to begin, click the button below to start recording.</p>
            <p class=""sentence-stimulus"">Texas is the only state that permits residents to cast absentee ballots from space.</p>
          </div>
        ","0","html-button-response","99","619861","0.0-38.0-0.0","ftqpxk732r","","","","","","","14T","Texas is the only state that permits residents to cast absentee ballots from space.","true","sentence_ready","","","","",""
"6422","
          <div class=""recording-instructions-box"">
            <h2>Recording in progress</h2>
            <p>Please read the sentence naturally, then click the button when you are done.</p>
            <p class=""sentence-stimulus"">Texas is the only state that permits residents to cast absentee ballots from space.</p>
          </div>
        ","null","html-audio-response","100","626338","0.0-38.0-1.0","ftqpxk732r","","","","","1","","14T","Texas is the only state that permits residents to cast absentee ballots from space.","true","sentence_recording","blob:https://charburnham.github.io/c3a3a327-09c7-40d9-902a-d7c70fafd047","1","ftqpxk732r_14T_audio.webm","",""
"684","
            <div class=""recording-instructions-box"">
              <h2>Review your recording</h2>
              <p>Listen to your recording for this sentence. If you want, you can record it again before moving on.</p>
              <p class=""sentence-stimulus"">Texas is the only state that permits residents to cast absentee ballots from space.</p>
              <audio controls src=""blob:https://charburnham.github.io/c3a3a327-09c7-40d9-902a-d7c70fafd047"" class=""playback-audio""></audio>
            </div>
          ","1","html-button-response","101","627023","0.0-38.0-2.0","ftqpxk732r","","","","","","queued","14T","Texas is the only state that permits residents to cast absentee ballots from space.","true","sentence_review","","1","ftqpxk732r_14T_audio.webm","accepted","ftqpxk732r_14T_audio.webm"
"816","
          <div class=""recording-instructions-box"">
            <h2>Read the sentence aloud</h2>
            <p>Take a moment to get ready. When you are ready to begin, click the button below to start recording.</p>
            <p class=""sentence-stimulus"">A crocodile can stick its tongue out further than any other animal.</p>
          </div>
        ","0","html-button-response","102","627840","0.0-39.0-0.0","ftqpxk732r","","","","","","","F4T","A crocodile can stick its tongue out further than any other animal.","true","sentence_ready","","","","",""
"4704","
          <div class=""recording-instructions-box"">
            <h2>Recording in progress</h2>
            <p>Please read the sentence naturally, then click the button when you are done.</p>
            <p class=""sentence-stimulus"">A crocodile can stick its tongue out further than any other animal.</p>
          </div>
        ","null","html-audio-response","103","632601","0.0-39.0-1.0","ftqpxk732r","","","","","1","","F4T","A crocodile can stick its tongue out further than any other animal.","true","sentence_recording","blob:https://charburnham.github.io/9cd1ea6d-69ed-455a-a2f4-48396a010014","1","ftqpxk732r_F4T_audio.webm","",""
"863","
            <div class=""recording-instructions-box"">
              <h2>Review your recording</h2>
              <p>Listen to your recording for this sentence. If you want, you can record it again before moving on.</p>
              <p class=""sentence-stimulus"">A crocodile can stick its tongue out further than any other animal.</p>
              <audio controls src=""blob:https://charburnham.github.io/9cd1ea6d-69ed-455a-a2f4-48396a010014"" class=""playback-audio""></audio>
            </div>
          ","1","html-button-response","104","633465","0.0-39.0-2.0","ftqpxk732r","","","","","","queued","F4T","A crocodile can stick its tongue out further than any other animal.","true","sentence_review","","1","ftqpxk732r_F4T_audio.webm","accepted","ftqpxk732r_F4T_audio.webm"
"757","
          <div class=""recording-instructions-box"">
            <h2>Read the sentence aloud</h2>
            <p>Take a moment to get ready. When you are ready to begin, click the button below to start recording.</p>
            <p class=""sentence-stimulus"">The first trains went into operation in the 1700s.</p>
          </div>
        ","0","html-button-response","105","634223","0.0-40.0-0.0","ftqpxk732r","","","","","","","45T","The first trains went into operation in the 1700s.","true","sentence_ready","","","","",""
"4736","
          <div class=""recording-instructions-box"">
            <h2>Recording in progress</h2>
            <p>Please read the sentence naturally, then click the button when you are done.</p>
            <p class=""sentence-stimulus"">The first trains went into operation in the 1700s.</p>
          </div>
        ","null","html-audio-response","106","639012","0.0-40.0-1.0","ftqpxk732r","","","","","1","","45T","The first trains went into operation in the 1700s.","true","sentence_recording","blob:https://charburnham.github.io/bfff2bae-d406-48f8-b700-0931f6530f69","1","ftqpxk732r_45T_audio.webm","",""
"581","
            <div class=""recording-instructions-box"">
              <h2>Review your recording</h2>
              <p>Listen to your recording for this sentence. If you want, you can record it again before moving on.</p>
              <p class=""sentence-stimulus"">The first trains went into operation in the 1700s.</p>
              <audio controls src=""blob:https://charburnham.github.io/bfff2bae-d406-48f8-b700-0931f6530f69"" class=""playback-audio""></audio>
            </div>
          ","1","html-button-response","107","639594","0.0-40.0-2.0","ftqpxk732r","","","","","","queued","45T","The first trains went into operation in the 1700s.","true","sentence_review","","1","ftqpxk732r_45T_audio.webm","accepted","ftqpxk732r_45T_audio.webm"
"857","
          <div class=""recording-instructions-box"">
            <h2>Read the sentence aloud</h2>
            <p>Take a moment to get ready. When you are ready to begin, click the button below to start recording.</p>
            <p class=""sentence-stimulus"">Germany was the first country to use a submarine in warfare.</p>
          </div>
        ","0","html-button-response","108","640453","0.0-41.0-0.0","ftqpxk732r","","","","","","","49F","Germany was the first country to use a submarine in warfare.","false","sentence_ready","","","","",""
"4794","
          <div class=""recording-instructions-box"">
            <h2>Recording in progress</h2>
            <p>Please read the sentence naturally, then click the button when you are done.</p>
            <p class=""sentence-stimulus"">Germany was the first country to use a submarine in warfare.</p>
          </div>
        ","null","html-audio-response","109","645301","0.0-41.0-1.0","ftqpxk732r","","","","","1","","49F","Germany was the first country to use a submarine in warfare.","false","sentence_recording","blob:https://charburnham.github.io/4ed105c0-db6b-452b-900c-e1ef5d09413e","1","ftqpxk732r_49F_audio.webm","",""
"567","
            <div class=""recording-instructions-box"">
              <h2>Review your recording</h2>
              <p>Listen to your recording for this sentence. If you want, you can record it again before moving on.</p>
              <p class=""sentence-stimulus"">Germany was the first country to use a submarine in warfare.</p>
              <audio controls src=""blob:https://charburnham.github.io/4ed105c0-db6b-452b-900c-e1ef5d09413e"" class=""playback-audio""></audio>
            </div>
          ","1","html-button-response","110","645869","0.0-41.0-2.0","ftqpxk732r","","","","","","queued","49F","Germany was the first country to use a submarine in warfare.","false","sentence_review","","1","ftqpxk732r_49F_audio.webm","accepted","ftqpxk732r_49F_audio.webm"
"770","
          <div class=""recording-instructions-box"">
            <h2>Read the sentence aloud</h2>
            <p>Take a moment to get ready. When you are ready to begin, click the button below to start recording.</p>
            <p class=""sentence-stimulus"">The clownfish is the only animal that can turn its stomach inside out.</p>
          </div>
        ","0","html-button-response","111","646640","0.0-42.0-0.0","ftqpxk732r","","","","","","","12F","The clownfish is the only animal that can turn its stomach inside out.","false","sentence_ready","","","","",""
"5388","
          <div class=""recording-instructions-box"">
            <h2>Recording in progress</h2>
            <p>Please read the sentence naturally, then click the button when you are done.</p>
            <p class=""sentence-stimulus"">The clownfish is the only animal that can turn its stomach inside out.</p>
          </div>
        ","null","html-audio-response","112","652084","0.0-42.0-1.0","ftqpxk732r","","","","","1","","12F","The clownfish is the only animal that can turn its stomach inside out.","false","sentence_recording","blob:https://charburnham.github.io/1e91e4ac-a5db-409a-81b1-c47747e9e3d0","1","ftqpxk732r_12F_audio.webm","",""
"671","
            <div class=""recording-instructions-box"">
              <h2>Review your recording</h2>
              <p>Listen to your recording for this sentence. If you want, you can record it again before moving on.</p>
              <p class=""sentence-stimulus"">The clownfish is the only animal that can turn its stomach inside out.</p>
              <audio controls src=""blob:https://charburnham.github.io/1e91e4ac-a5db-409a-81b1-c47747e9e3d0"" class=""playback-audio""></audio>
            </div>
          ","1","html-button-response","113","652756","0.0-42.0-2.0","ftqpxk732r","","","","","","queued","12F","The clownfish is the only animal that can turn its stomach inside out.","false","sentence_review","","1","ftqpxk732r_12F_audio.webm","accepted","ftqpxk732r_12F_audio.webm"
"745","
          <div class=""recording-instructions-box"">
            <h2>Read the sentence aloud</h2>
            <p>Take a moment to get ready. When you are ready to begin, click the button below to start recording.</p>
            <p class=""sentence-stimulus"">Owls cannot see the color blue.</p>
          </div>
        ","0","html-button-response","114","653502","0.0-43.0-0.0","ftqpxk732r","","","","","","","F13F","Owls cannot see the color blue.","false","sentence_ready","","","","",""
"3406","
          <div class=""recording-instructions-box"">
            <h2>Recording in progress</h2>
            <p>Please read the sentence naturally, then click the button when you are done.</p>
            <p class=""sentence-stimulus"">Owls cannot see the color blue.</p>
          </div>
        ","null","html-audio-response","115","656962","0.0-43.0-1.0","ftqpxk732r","","","","","1","","F13F","Owls cannot see the color blue.","false","sentence_recording","blob:https://charburnham.github.io/2f74f279-c2c0-4df9-9314-29f848b7fc53","1","ftqpxk732r_F13F_audio.webm","",""
"4092","
            <div class=""recording-instructions-box"">
              <h2>Review your recording</h2>
              <p>Listen to your recording for this sentence. If you want, you can record it again before moving on.</p>
              <p class=""sentence-stimulus"">Owls cannot see the color blue.</p>
              <audio controls src=""blob:https://charburnham.github.io/2f74f279-c2c0-4df9-9314-29f848b7fc53"" class=""playback-audio""></audio>
            </div>
          ","1","html-button-response","116","661055","0.0-43.0-2.0","ftqpxk732r","","","","","","queued","F13F","Owls cannot see the color blue.","false","sentence_review","","1","ftqpxk732r_F13F_audio.webm","accepted","ftqpxk732r_F13F_audio.webm"
"755","
          <div class=""recording-instructions-box"">
            <h2>Read the sentence aloud</h2>
            <p>Take a moment to get ready. When you are ready to begin, click the button below to start recording.</p>
            <p class=""sentence-stimulus"">A group of crows is called a crew.</p>
          </div>
        ","0","html-button-response","117","661811","0.0-44.0-0.0","ftqpxk732r","","","","","","","34F","A group of crows is called a crew.","false","sentence_ready","","","","",""
"3325","
          <div class=""recording-instructions-box"">
            <h2>Recording in progress</h2>
            <p>Please read the sentence naturally, then click the button when you are done.</p>
            <p class=""sentence-stimulus"">A group of crows is called a crew.</p>
          </div>
        ","null","html-audio-response","118","665192","0.0-44.0-1.0","ftqpxk732r","","","","","1","","34F","A group of crows is called a crew.","false","sentence_recording","blob:https://charburnham.github.io/ae5503e4-a170-477b-af89-f5e7293ff601","1","ftqpxk732r_34F_audio.webm","",""
"584","
            <div class=""recording-instructions-box"">
              <h2>Review your recording</h2>
              <p>Listen to your recording for this sentence. If you want, you can record it again before moving on.</p>
              <p class=""sentence-stimulus"">A group of crows is called a crew.</p>
              <audio controls src=""blob:https://charburnham.github.io/ae5503e4-a170-477b-af89-f5e7293ff601"" class=""playback-audio""></audio>
            </div>
          ","1","html-button-response","119","665777","0.0-44.0-2.0","ftqpxk732r","","","","","","queued","34F","A group of crows is called a crew.","false","sentence_review","","1","ftqpxk732r_34F_audio.webm","accepted","ftqpxk732r_34F_audio.webm"
"745","
          <div class=""recording-instructions-box"">
            <h2>Read the sentence aloud</h2>
            <p>Take a moment to get ready. When you are ready to begin, click the button below to start recording.</p>
            <p class=""sentence-stimulus"">The United States has no official language.</p>
          </div>
        ","0","html-button-response","120","666523","0.0-45.0-0.0","ftqpxk732r","","","","","","","37T","The United States has no official language.","true","sentence_ready","","","","",""
"3357","
          <div class=""recording-instructions-box"">
            <h2>Recording in progress</h2>
            <p>Please read the sentence naturally, then click the button when you are done.</p>
            <p class=""sentence-stimulus"">The United States has no official language.</p>
          </div>
        ","null","html-audio-response","121","669934","0.0-45.0-1.0","ftqpxk732r","","","","","1","","37T","The United States has no official language.","true","sentence_recording","blob:https://charburnham.github.io/1c518813-067a-4968-980c-41d56bb7ced1","1","ftqpxk732r_37T_audio.webm","",""
"659","
            <div class=""recording-instructions-box"">
              <h2>Review your recording</h2>
              <p>Listen to your recording for this sentence. If you want, you can record it again before moving on.</p>
              <p class=""sentence-stimulus"">The United States has no official language.</p>
              <audio controls src=""blob:https://charburnham.github.io/1c518813-067a-4968-980c-41d56bb7ced1"" class=""playback-audio""></audio>
            </div>
          ","1","html-button-response","122","670594","0.0-45.0-2.0","ftqpxk732r","","","","","","queued","37T","The United States has no official language.","true","sentence_review","","1","ftqpxk732r_37T_audio.webm","accepted","ftqpxk732r_37T_audio.webm"
"720","
          <div class=""recording-instructions-box"">
            <h2>Read the sentence aloud</h2>
            <p>Take a moment to get ready. When you are ready to begin, click the button below to start recording.</p>
            <p class=""sentence-stimulus"">Chameleons' tongues can stretch to two times their body length.</p>
          </div>
        ","0","html-button-response","123","671315","0.0-46.0-0.0","ftqpxk732r","","","","","","","42T","Chameleons' tongues can stretch to two times their body length.","true","sentence_ready","","","","",""
"5674","
          <div class=""recording-instructions-box"">
            <h2>Recording in progress</h2>
            <p>Please read the sentence naturally, then click the button when you are done.</p>
            <p class=""sentence-stimulus"">Chameleons' tongues can stretch to two times their body length.</p>
          </div>
        ","null","html-audio-response","124","677050","0.0-46.0-1.0","ftqpxk732r","","","","","1","","42T","Chameleons' tongues can stretch to two times their body length.","true","sentence_recording","blob:https://charburnham.github.io/77c354d1-6012-4e1e-a3b1-49137bdb9979","1","ftqpxk732r_42T_audio.webm","",""
"1044","
            <div class=""recording-instructions-box"">
              <h2>Review your recording</h2>
              <p>Listen to your recording for this sentence. If you want, you can record it again before moving on.</p>
              <p class=""sentence-stimulus"">Chameleons' tongues can stretch to two times their body length.</p>
              <audio controls src=""blob:https://charburnham.github.io/77c354d1-6012-4e1e-a3b1-49137bdb9979"" class=""playback-audio""></audio>
            </div>
          ","0","html-button-response","125","678094","0.0-46.0-2.0","ftqpxk732r","","","","","","not_uploaded_rerecorded","42T","Chameleons' tongues can stretch to two times their body length.","true","sentence_review","","1","ftqpxk732r_42T_audio.webm","rerecord","null"
"1024","
          <div class=""recording-instructions-box"">
            <h2>Read the sentence aloud</h2>
            <p>Take a moment to get ready. When you are ready to begin, click the button below to start recording.</p>
            <p class=""sentence-stimulus"">Chameleons' tongues can stretch to two times their body length.</p>
          </div>
        ","0","html-button-response","126","679119","0.0-46.1-0.1","ftqpxk732r","","","","","","","42T","Chameleons' tongues can stretch to two times their body length.","true","sentence_ready","","","","",""
"4736","
          <div class=""recording-instructions-box"">
            <h2>Recording in progress</h2>
            <p>Please read the sentence naturally, then click the button when you are done.</p>
            <p class=""sentence-stimulus"">Chameleons' tongues can stretch to two times their body length.</p>
          </div>
        ","null","html-audio-response","127","683914","0.0-46.1-1.1","ftqpxk732r","","","","","1","","42T","Chameleons' tongues can stretch to two times their body length.","true","sentence_recording","blob:https://charburnham.github.io/a105a7ef-bf7f-443c-bf39-69f2fc4aa9a0","2","ftqpxk732r_42T_audio.webm","",""
"7149","
            <div class=""recording-instructions-box"">
              <h2>Review your recording</h2>
              <p>Listen to your recording for this sentence. If you want, you can record it again before moving on.</p>
              <p class=""sentence-stimulus"">Chameleons' tongues can stretch to two times their body length.</p>
              <audio controls src=""blob:https://charburnham.github.io/a105a7ef-bf7f-443c-bf39-69f2fc4aa9a0"" class=""playback-audio""></audio>
            </div>
          ","1","html-button-response","128","691063","0.0-46.1-2.1","ftqpxk732r","","","","","","queued","42T","Chameleons' tongues can stretch to two times their body length.","true","sentence_review","","2","ftqpxk732r_42T_audio.webm","accepted","ftqpxk732r_42T_audio.webm"
"880","
          <div class=""recording-instructions-box"">
            <h2>Read the sentence aloud</h2>
            <p>Take a moment to get ready. When you are ready to begin, click the button below to start recording.</p>
            <p class=""sentence-stimulus"">The mouth of the Statue of Liberty is 7 feet wide.</p>
          </div>
        ","0","html-button-response","129","691944","0.0-47.0-0.0","ftqpxk732r","","","","","","","18F","The mouth of the Statue of Liberty is 7 feet wide.","false","sentence_ready","","","","",""
"4548","
          <div class=""recording-instructions-box"">
            <h2>Recording in progress</h2>
            <p>Please read the sentence naturally, then click the button when you are done.</p>
            <p class=""sentence-stimulus"">The mouth of the Statue of Liberty is 7 feet wide.</p>
          </div>
        ","null","html-audio-response","130","696556","0.0-47.0-1.0","ftqpxk732r","","","","","1","","18F","The mouth of the Statue of Liberty is 7 feet wide.","false","sentence_recording","blob:https://charburnham.github.io/cdcf425c-eeec-4314-8f30-1c65899df3ad","1","ftqpxk732r_18F_audio.webm","",""
"634","
            <div class=""recording-instructions-box"">
              <h2>Review your recording</h2>
              <p>Listen to your recording for this sentence. If you want, you can record it again before moving on.</p>
              <p class=""sentence-stimulus"">The mouth of the Statue of Liberty is 7 feet wide.</p>
              <audio controls src=""blob:https://charburnham.github.io/cdcf425c-eeec-4314-8f30-1c65899df3ad"" class=""playback-audio""></audio>
            </div>
          ","1","html-button-response","131","697190","0.0-47.0-2.0","ftqpxk732r","","","","","","queued","18F","The mouth of the Statue of Liberty is 7 feet wide.","false","sentence_review","","1","ftqpxk732r_18F_audio.webm","accepted","ftqpxk732r_18F_audio.webm"
"694","
          <div class=""recording-instructions-box"">
            <h2>Read the sentence aloud</h2>
            <p>Take a moment to get ready. When you are ready to begin, click the button below to start recording.</p>
            <p class=""sentence-stimulus"">Venus rotates clockwise.</p>
          </div>
        ","0","html-button-response","132","697886","0.0-48.0-0.0","ftqpxk732r","","","","","","","33T","Venus rotates clockwise.","true","sentence_ready","","","","",""
"2591","
          <div class=""recording-instructions-box"">
            <h2>Recording in progress</h2>
            <p>Please read the sentence naturally, then click the button when you are done.</p>
            <p class=""sentence-stimulus"">Venus rotates clockwise.</p>
          </div>
        ","null","html-audio-response","133","700538","0.0-48.0-1.0","ftqpxk732r","","","","","1","","33T","Venus rotates clockwise.","true","sentence_recording","blob:https://charburnham.github.io/65720616-1197-4d1a-9f8c-860ce0e3c9e2","1","ftqpxk732r_33T_audio.webm","",""
"606","
            <div class=""recording-instructions-box"">
              <h2>Review your recording</h2>
              <p>Listen to your recording for this sentence. If you want, you can record it again before moving on.</p>
              <p class=""sentence-stimulus"">Venus rotates clockwise.</p>
              <audio controls src=""blob:https://charburnham.github.io/65720616-1197-4d1a-9f8c-860ce0e3c9e2"" class=""playback-audio""></audio>
            </div>
          ","1","html-button-response","134","701144","0.0-48.0-2.0","ftqpxk732r","","","","","","queued","33T","Venus rotates clockwise.","true","sentence_review","","1","ftqpxk732r_33T_audio.webm","accepted","ftqpxk732r_33T_audio.webm"
"749","
          <div class=""recording-instructions-box"">
            <h2>Read the sentence aloud</h2>
            <p>Take a moment to get ready. When you are ready to begin, click the button below to start recording.</p>
            <p class=""sentence-stimulus"">Nepal is the only country whose national flag is not rectangular.</p>
          </div>
        ","0","html-button-response","135","701894","0.0-49.0-0.0","ftqpxk732r","","","","","","","35T","Nepal is the only country whose national flag is not rectangular.","true","sentence_ready","","","","",""
"4553","
          <div class=""recording-instructions-box"">
            <h2>Recording in progress</h2>
            <p>Please read the sentence naturally, then click the button when you are done.</p>
            <p class=""sentence-stimulus"">Nepal is the only country whose national flag is not rectangular.</p>
          </div>
        ","null","html-audio-response","136","706511","0.0-49.0-1.0","ftqpxk732r","","","","","1","","35T","Nepal is the only country whose national flag is not rectangular.","true","sentence_recording","blob:https://charburnham.github.io/54ff307b-f015-445a-8766-8b566c79b8cc","1","ftqpxk732r_35T_audio.webm","",""
"2589","
            <div class=""recording-instructions-box"">
              <h2>Review your recording</h2>
              <p>Listen to your recording for this sentence. If you want, you can record it again before moving on.</p>
              <p class=""sentence-stimulus"">Nepal is the only country whose national flag is not rectangular.</p>
              <audio controls src=""blob:https://charburnham.github.io/54ff307b-f015-445a-8766-8b566c79b8cc"" class=""playback-audio""></audio>
            </div>
          ","1","html-button-response","137","709100","0.0-49.0-2.0","ftqpxk732r","","","","","","queued","35T","Nepal is the only country whose national flag is not rectangular.","true","sentence_review","","1","ftqpxk732r_35T_audio.webm","accepted","ftqpxk732r_35T_audio.webm"
"880","
          <div class=""recording-instructions-box"">
            <h2>Read the sentence aloud</h2>
            <p>Take a moment to get ready. When you are ready to begin, click the button below to start recording.</p>
            <p class=""sentence-stimulus"">A jellyfish is more than 95% water.</p>
          </div>
        ","0","html-button-response","138","709982","0.0-50.0-0.0","ftqpxk732r","","","","","","","F9T","A jellyfish is more than 95% water.","true","sentence_ready","","","","",""
"4230","
          <div class=""recording-instructions-box"">
            <h2>Recording in progress</h2>
            <p>Please read the sentence naturally, then click the button when you are done.</p>
            <p class=""sentence-stimulus"">A jellyfish is more than 95% water.</p>
          </div>
        ","null","html-audio-response","139","714268","0.0-50.0-1.0","ftqpxk732r","","","","","1","","F9T","A jellyfish is more than 95% water.","true","sentence_recording","blob:https://charburnham.github.io/8bab64d0-af6b-4c82-bd37-67d0390ae660","1","ftqpxk732r_F9T_audio.webm","",""
"560","
            <div class=""recording-instructions-box"">
              <h2>Review your recording</h2>
              <p>Listen to your recording for this sentence. If you want, you can record it again before moving on.</p>
              <p class=""sentence-stimulus"">A jellyfish is more than 95% water.</p>
              <audio controls src=""blob:https://charburnham.github.io/8bab64d0-af6b-4c82-bd37-67d0390ae660"" class=""playback-audio""></audio>
            </div>
          ","1","html-button-response","140","714828","0.0-50.0-2.0","ftqpxk732r","","","","","","queued","F9T","A jellyfish is more than 95% water.","true","sentence_review","","1","ftqpxk732r_F9T_audio.webm","accepted","ftqpxk732r_F9T_audio.webm"
"695","
          <div class=""recording-instructions-box"">
            <h2>Read the sentence aloud</h2>
            <p>Take a moment to get ready. When you are ready to begin, click the button below to start recording.</p>
            <p class=""sentence-stimulus"">A honeybee can fly at 15 mph.</p>
          </div>
        ","0","html-button-response","141","715524","0.0-51.0-0.0","ftqpxk732r","","","","","","","5T","A honeybee can fly at 15 mph.","true","sentence_ready","","","","",""
"4123","
          <div class=""recording-instructions-box"">
            <h2>Recording in progress</h2>
            <p>Please read the sentence naturally, then click the button when you are done.</p>
            <p class=""sentence-stimulus"">A honeybee can fly at 15 mph.</p>
          </div>
        ","null","html-audio-response","142","719700","0.0-51.0-1.0","ftqpxk732r","","","","","1","","5T","A honeybee can fly at 15 mph.","true","sentence_recording","blob:https://charburnham.github.io/f5d11c57-6a74-4663-b365-85a00632caed","1","ftqpxk732r_5T_audio.webm","",""
"652","
            <div class=""recording-instructions-box"">
              <h2>Review your recording</h2>
              <p>Listen to your recording for this sentence. If you want, you can record it again before moving on.</p>
              <p class=""sentence-stimulus"">A honeybee can fly at 15 mph.</p>
              <audio controls src=""blob:https://charburnham.github.io/f5d11c57-6a74-4663-b365-85a00632caed"" class=""playback-audio""></audio>
            </div>
          ","1","html-button-response","143","720353","0.0-51.0-2.0","ftqpxk732r","","","","","","queued","5T","A honeybee can fly at 15 mph.","true","sentence_review","","1","ftqpxk732r_5T_audio.webm","accepted","ftqpxk732r_5T_audio.webm"
"695","
          <div class=""recording-instructions-box"">
            <h2>Read the sentence aloud</h2>
            <p>Take a moment to get ready. When you are ready to begin, click the button below to start recording.</p>
            <p class=""sentence-stimulus"">Only male mosquitoes bite.</p>
          </div>
        ","0","html-button-response","144","721048","0.0-52.0-0.0","ftqpxk732r","","","","","","","50F","Only male mosquitoes bite.","false","sentence_ready","","","","",""
"2464","
          <div class=""recording-instructions-box"">
            <h2>Recording in progress</h2>
            <p>Please read the sentence naturally, then click the button when you are done.</p>
            <p class=""sentence-stimulus"">Only male mosquitoes bite.</p>
          </div>
        ","null","html-audio-response","145","723571","0.0-52.0-1.0","ftqpxk732r","","","","","1","","50F","Only male mosquitoes bite.","false","sentence_recording","blob:https://charburnham.github.io/36af691c-4bae-4cb8-b212-5f6842eb6151","1","ftqpxk732r_50F_audio.webm","",""
"735","
            <div class=""recording-instructions-box"">
              <h2>Review your recording</h2>
              <p>Listen to your recording for this sentence. If you want, you can record it again before moving on.</p>
              <p class=""sentence-stimulus"">Only male mosquitoes bite.</p>
              <audio controls src=""blob:https://charburnham.github.io/36af691c-4bae-4cb8-b212-5f6842eb6151"" class=""playback-audio""></audio>
            </div>
          ","1","html-button-response","146","724307","0.0-52.0-2.0","ftqpxk732r","","","","","","queued","50F","Only male mosquitoes bite.","false","sentence_review","","1","ftqpxk732r_50F_audio.webm","accepted","ftqpxk732r_50F_audio.webm"
"703","
          <div class=""recording-instructions-box"">
            <h2>Read the sentence aloud</h2>
            <p>Take a moment to get ready. When you are ready to begin, click the button below to start recording.</p>
            <p class=""sentence-stimulus"">A crocodile cannot stick out its tongue.</p>
          </div>
        ","0","html-button-response","147","725011","0.0-53.0-0.0","ftqpxk732r","","","","","","","F4F","A crocodile cannot stick out its tongue.","false","sentence_ready","","","","",""
"3525","
          <div class=""recording-instructions-box"">
            <h2>Recording in progress</h2>
            <p>Please read the sentence naturally, then click the button when you are done.</p>
            <p class=""sentence-stimulus"">A crocodile cannot stick out its tongue.</p>
          </div>
        ","null","html-audio-response","148","728592","0.0-53.0-1.0","ftqpxk732r","","","","","1","","F4F","A crocodile cannot stick out its tongue.","false","sentence_recording","blob:https://charburnham.github.io/d55de3ae-f942-461b-a888-a7bf1dd65cbc","1","ftqpxk732r_F4F_audio.webm","",""
"506","
            <div class=""recording-instructions-box"">
              <h2>Review your recording</h2>
              <p>Listen to your recording for this sentence. If you want, you can record it again before moving on.</p>
              <p class=""sentence-stimulus"">A crocodile cannot stick out its tongue.</p>
              <audio controls src=""blob:https://charburnham.github.io/d55de3ae-f942-461b-a888-a7bf1dd65cbc"" class=""playback-audio""></audio>
            </div>
          ","1","html-button-response","149","729098","0.0-53.0-2.0","ftqpxk732r","","","","","","queued","F4F","A crocodile cannot stick out its tongue.","false","sentence_review","","1","ftqpxk732r_F4F_audio.webm","accepted","ftqpxk732r_F4F_audio.webm"
"662","
          <div class=""recording-instructions-box"">
            <h2>Read the sentence aloud</h2>
            <p>Take a moment to get ready. When you are ready to begin, click the button below to start recording.</p>
            <p class=""sentence-stimulus"">The state of Arizona does not observe daylight savings time.</p>
          </div>
        ","0","html-button-response","150","729761","0.0-54.0-0.0","ftqpxk732r","","","","","","","F8T","The state of Arizona does not observe daylight savings time.","true","sentence_ready","","","","",""
"3958","
          <div class=""recording-instructions-box"">
            <h2>Recording in progress</h2>
            <p>Please read the sentence naturally, then click the button when you are done.</p>
            <p class=""sentence-stimulus"">The state of Arizona does not observe daylight savings time.</p>
          </div>
        ","null","html-audio-response","151","733775","0.0-54.0-1.0","ftqpxk732r","","","","","1","","F8T","The state of Arizona does not observe daylight savings time.","true","sentence_recording","blob:https://charburnham.github.io/90ea7a5a-8e1b-4122-9707-02ddebc5aa7c","1","ftqpxk732r_F8T_audio.webm","",""
"556","
            <div class=""recording-instructions-box"">
              <h2>Review your recording</h2>
              <p>Listen to your recording for this sentence. If you want, you can record it again before moving on.</p>
              <p class=""sentence-stimulus"">The state of Arizona does not observe daylight savings time.</p>
              <audio controls src=""blob:https://charburnham.github.io/90ea7a5a-8e1b-4122-9707-02ddebc5aa7c"" class=""playback-audio""></audio>
            </div>
          ","1","html-button-response","152","734332","0.0-54.0-2.0","ftqpxk732r","","","","","","queued","F8T","The state of Arizona does not observe daylight savings time.","true","sentence_review","","1","ftqpxk732r_F8T_audio.webm","accepted","ftqpxk732r_F8T_audio.webm"
"2388","
          <div class=""recording-instructions-box"">
            <h2>Read the sentence aloud</h2>
            <p>Take a moment to get ready. When you are ready to begin, click the button below to start recording.</p>
            <p class=""sentence-stimulus"">Venezuela currently has the highest murder rate of any country in the world.</p>
          </div>
        ","0","html-button-response","153","736720","0.0-55.0-0.0","ftqpxk732r","","","","","","","F18F","Venezuela currently has the highest murder rate of any country in the world.","false","sentence_ready","","","","",""
"4682","
          <div class=""recording-instructions-box"">
            <h2>Recording in progress</h2>
            <p>Please read the sentence naturally, then click the button when you are done.</p>
            <p class=""sentence-stimulus"">Venezuela currently has the highest murder rate of any country in the world.</p>
          </div>
        ","null","html-audio-response","154","741458","0.0-55.0-1.0","ftqpxk732r","","","","","1","","F18F","Venezuela currently has the highest murder rate of any country in the world.","false","sentence_recording","blob:https://charburnham.github.io/346a3557-94ef-4493-aa91-06a1ee1b9473","1","ftqpxk732r_F18F_audio.webm","",""
"560","
            <div class=""recording-instructions-box"">
              <h2>Review your recording</h2>
              <p>Listen to your recording for this sentence. If you want, you can record it again before moving on.</p>
              <p class=""sentence-stimulus"">Venezuela currently has the highest murder rate of any country in the world.</p>
              <audio controls src=""blob:https://charburnham.github.io/346a3557-94ef-4493-aa91-06a1ee1b9473"" class=""playback-audio""></audio>
            </div>
          ","1","html-button-response","155","742019","0.0-55.0-2.0","ftqpxk732r","","","","","","queued","F18F","Venezuela currently has the highest murder rate of any country in the world.","false","sentence_review","","1","ftqpxk732r_F18F_audio.webm","accepted","ftqpxk732r_F18F_audio.webm"
"762","
          <div class=""recording-instructions-box"">
            <h2>Read the sentence aloud</h2>
            <p>Take a moment to get ready. When you are ready to begin, click the button below to start recording.</p>
            <p class=""sentence-stimulus"">The average ruby-throated hummingbird weighs less than a nickel.</p>
          </div>
        ","0","html-button-response","156","742782","0.0-56.0-0.0","ftqpxk732r","","","","","","","8T","The average ruby-throated hummingbird weighs less than a nickel.","true","sentence_ready","","","","",""
"4180","
          <div class=""recording-instructions-box"">
            <h2>Recording in progress</h2>
            <p>Please read the sentence naturally, then click the button when you are done.</p>
            <p class=""sentence-stimulus"">The average ruby-throated hummingbird weighs less than a nickel.</p>
          </div>
        ","null","html-audio-response","157","747017","0.0-56.0-1.0","ftqpxk732r","","","","","1","","8T","The average ruby-throated hummingbird weighs less than a nickel.","true","sentence_recording","blob:https://charburnham.github.io/89578006-0dac-4db2-b58e-da51e46b6108","1","ftqpxk732r_8T_audio.webm","",""
"505","
            <div class=""recording-instructions-box"">
              <h2>Review your recording</h2>
              <p>Listen to your recording for this sentence. If you want, you can record it again before moving on.</p>
              <p class=""sentence-stimulus"">The average ruby-throated hummingbird weighs less than a nickel.</p>
              <audio controls src=""blob:https://charburnham.github.io/89578006-0dac-4db2-b58e-da51e46b6108"" class=""playback-audio""></audio>
            </div>
          ","1","html-button-response","158","747523","0.0-56.0-2.0","ftqpxk732r","","","","","","queued","8T","The average ruby-throated hummingbird weighs less than a nickel.","true","sentence_review","","1","ftqpxk732r_8T_audio.webm","accepted","ftqpxk732r_8T_audio.webm"
"645","
          <div class=""recording-instructions-box"">
            <h2>Read the sentence aloud</h2>
            <p>Take a moment to get ready. When you are ready to begin, click the button below to start recording.</p>
