"rt","stimulus","response","trial_type","trial_index","time_elapsed","internal_node_id","subject_id","microphone_confirmed","device_id","view_history","trial_type_label","estimated_stimulus_onset","audio_upload","stimulus_code","sentence","condition","trial_stage","audio_url","recording_attempt","recording_filename","review_decision","saved_audio_file"
"1357","
    <div class=""consent"">
      <h2>Consent Form</h2>
      <p>If you agree to participate in this research, please click ""Continue"".</p>
    </div>
  ","0","html-button-response","0","1362","0.0-0.0","7brghu4wnv","","","","","","","","","","","","","","",""
"996","
    <div class=""instructions"">
      <h2>Instructions</h2>
      <p>In this experiment, you will see a sentence on the screen.</p>
      <p>Your task is to record yourself reading that sentence aloud using your microphone.</p>
      <p>For each sentence, you'll click <strong>Start Recording</strong> when you're ready, rather than having the recording begin right away.</p>
      <p>After each recording, you can listen back and either continue to the next sentence or re-record.</p>
      <p>Click ""Next"" to continue to the microphone test.</p>
    </div>
  ","0","html-button-response","1","2360","0.0-1.0","7brghu4wnv","","","","","","","","","","","","","","",""
"","","","html-keyboard-response","2","11676","0.0-2.0","7brghu4wnv","yes","","","","","","","","","","","","","",""
"5699","
    <div class=""content"">
      <h2>Microphone Setup</h2>
      <div class=""instruction-box"">
        <p>Before starting the experiment, we need to set up your microphone.</p>
        <p>On the next page:</p>
        <ul>
          <li>Your browser will ask for microphone permission - please click <strong>Allow</strong></li>
          <li>You'll see a dropdown menu with available microphones</li>
          <li>Select the microphone you want to use</li>
          <li>Click ""Use this microphone"" to continue</li>
        </ul>
      </div>
    </div>
  ","0","html-button-response","3","17377","0.0-3.0","7brghu4wnv","","","","","","","","","","","","","","",""
"","","","initialize-microphone","4","33691","0.0-4.0","7brghu4wnv","","224d49aeb5d5aad9e1be745badd5befc62778364b06b15db61324e267dc555c2","","","","","","","","","","","","",""
"17234","","","instructions","5","50925","0.0-5.0","7brghu4wnv","","","[{""page_index"":0,""viewing_time"":17234}]","","","","","","","","","","","",""
"3732","
        <div class=""content"">
          <div class=""recording-box"">
            <h3>Microphone Test</h3>
            <p>Take a moment to get ready.</p>
            <p>Click the button below when you want to begin the test recording.</p>
          </div>
        </div>
      ","0","html-button-response","6","54659","0.0-6.0","7brghu4wnv","","","","microphone_test_ready","","","","","","","","","","",""
"4894","
          <div class=""content"">
          <div class=""recording-box"">
          <h3>Recording in Progress...</h3>
          <p>Speak naturally, for example: <em>""Testing, 1, 2, 3.""</em></p>
      </div>
    ","7brghu4wnv_microphone_test_audio.webm","html-audio-response","7","66843","0.0-7.0","7brghu4wnv","","","","microphone_test","9","queued","","","","","","","","",""
"10545","
    <div class=""content"">
      <div class=""begin-box"">
        <h2>Let's Begin!</h2>
        <p>Now the microphone test is done and the main part begins.</p>
        <p>Each sentence will appear first, and you'll click <strong>Start Recording</strong> when you're ready to speak.</p>
        <p>After each sentence, you'll be able to listen to your recording and decide whether to keep it or record again.</p>
        <p>Click ""Continue"" to start recording the sentences.</p>
      </div>
    </div>
  ","0","html-button-response","8","77392","0.0-8.0","7brghu4wnv","","","","","","","","","","","","","","",""
"4897","
          <div class=""recording-instructions-box"">
            <h2>Read the sentence aloud</h2>
            <p>Take a moment to get ready. When you are ready to begin, click the button below to start recording.</p>
            <p class=""sentence-stimulus"">In Ancient Egypt, a yard was the length of a man's arm from nose to tip.</p>
          </div>
        ","0","html-button-response","9","82291","0.0-9.0-0.0","7brghu4wnv","","","","","","","F15T","In Ancient Egypt, a yard was the length of a man's arm from nose to tip.","true","sentence_ready","","","","",""
"8129","
          <div class=""recording-instructions-box"">
            <h2>Recording in progress</h2>
            <p>Please read the sentence naturally, then click the button when you are done.</p>
            <p class=""sentence-stimulus"">In Ancient Egypt, a yard was the length of a man's arm from nose to tip.</p>
          </div>
        ","null","html-audio-response","10","90496","0.0-9.0-1.0","7brghu4wnv","","","","","11","","F15T","In Ancient Egypt, a yard was the length of a man's arm from nose to tip.","true","sentence_recording","blob:https://charburnham.github.io/5bc91cf8-6876-4e70-8e99-1e3fa0c8be9a","1","7brghu4wnv_F15T_audio.webm","",""
"12610","
            <div class=""recording-instructions-box"">
              <h2>Review your recording</h2>
              <p>Listen to your recording for this sentence. If you want, you can record it again before moving on.</p>
              <p class=""sentence-stimulus"">In Ancient Egypt, a yard was the length of a man's arm from nose to tip.</p>
              <audio controls src=""blob:https://charburnham.github.io/5bc91cf8-6876-4e70-8e99-1e3fa0c8be9a"" class=""playback-audio""></audio>
            </div>
          ","0","html-button-response","11","103108","0.0-9.0-2.0","7brghu4wnv","","","","","","not_uploaded_rerecorded","F15T","In Ancient Egypt, a yard was the length of a man's arm from nose to tip.","true","sentence_review","","1","7brghu4wnv_F15T_audio.webm","rerecord","null"
"981","
          <div class=""recording-instructions-box"">
            <h2>Read the sentence aloud</h2>
            <p>Take a moment to get ready. When you are ready to begin, click the button below to start recording.</p>
            <p class=""sentence-stimulus"">In Ancient Egypt, a yard was the length of a man's arm from nose to tip.</p>
          </div>
        ","0","html-button-response","12","104091","0.0-9.1-0.1","7brghu4wnv","","","","","","","F15T","In Ancient Egypt, a yard was the length of a man's arm from nose to tip.","true","sentence_ready","","","","",""
"2479","
          <div class=""recording-instructions-box"">
            <h2>Recording in progress</h2>
            <p>Please read the sentence naturally, then click the button when you are done.</p>
            <p class=""sentence-stimulus"">In Ancient Egypt, a yard was the length of a man's arm from nose to tip.</p>
          </div>
        ","null","html-audio-response","13","106645","0.0-9.1-1.1","7brghu4wnv","","","","","10","","F15T","In Ancient Egypt, a yard was the length of a man's arm from nose to tip.","true","sentence_recording","blob:https://charburnham.github.io/b5f07c25-2444-4ef9-bdd6-c8ff8d5d0778","2","7brghu4wnv_F15T_audio.webm","",""
"911","
            <div class=""recording-instructions-box"">
              <h2>Review your recording</h2>
              <p>Listen to your recording for this sentence. If you want, you can record it again before moving on.</p>
              <p class=""sentence-stimulus"">In Ancient Egypt, a yard was the length of a man's arm from nose to tip.</p>
              <audio controls src=""blob:https://charburnham.github.io/b5f07c25-2444-4ef9-bdd6-c8ff8d5d0778"" class=""playback-audio""></audio>
            </div>
          ","0","html-button-response","14","107558","0.0-9.1-2.1","7brghu4wnv","","","","","","not_uploaded_rerecorded","F15T","In Ancient Egypt, a yard was the length of a man's arm from nose to tip.","true","sentence_review","","2","7brghu4wnv_F15T_audio.webm","rerecord","null"
"1148","
          <div class=""recording-instructions-box"">
            <h2>Read the sentence aloud</h2>
            <p>Take a moment to get ready. When you are ready to begin, click the button below to start recording.</p>
            <p class=""sentence-stimulus"">In Ancient Egypt, a yard was the length of a man's arm from nose to tip.</p>
          </div>
        ","0","html-button-response","15","108708","0.0-9.2-0.2","7brghu4wnv","","","","","","","F15T","In Ancient Egypt, a yard was the length of a man's arm from nose to tip.","true","sentence_ready","","","","",""
"7395","
          <div class=""recording-instructions-box"">
            <h2>Recording in progress</h2>
            <p>Please read the sentence naturally, then click the button when you are done.</p>
            <p class=""sentence-stimulus"">In Ancient Egypt, a yard was the length of a man's arm from nose to tip.</p>
          </div>
        ","null","html-audio-response","16","116179","0.0-9.2-1.2","7brghu4wnv","","","","","17","","F15T","In Ancient Egypt, a yard was the length of a man's arm from nose to tip.","true","sentence_recording","blob:https://charburnham.github.io/ad6fbc52-7d5c-413b-ad58-c644b758017b","3","7brghu4wnv_F15T_audio.webm","",""
"8794","
            <div class=""recording-instructions-box"">
              <h2>Review your recording</h2>
              <p>Listen to your recording for this sentence. If you want, you can record it again before moving on.</p>
              <p class=""sentence-stimulus"">In Ancient Egypt, a yard was the length of a man's arm from nose to tip.</p>
              <audio controls src=""blob:https://charburnham.github.io/ad6fbc52-7d5c-413b-ad58-c644b758017b"" class=""playback-audio""></audio>
            </div>
          ","1","html-button-response","17","124974","0.0-9.2-2.2","7brghu4wnv","","","","","","queued","F15T","In Ancient Egypt, a yard was the length of a man's arm from nose to tip.","true","sentence_review","","3","7brghu4wnv_F15T_audio.webm","accepted","7brghu4wnv_F15T_audio.webm"
"8530","
          <div class=""recording-instructions-box"">
            <h2>Read the sentence aloud</h2>
            <p>Take a moment to get ready. When you are ready to begin, click the button below to start recording.</p>
            <p class=""sentence-stimulus"">The mouth of the Statue of Liberty is 3 feet wide.</p>
          </div>
        ","0","html-button-response","18","133507","0.0-10.0-0.0","7brghu4wnv","","","","","","","18T","The mouth of the Statue of Liberty is 3 feet wide.","true","sentence_ready","","","","",""
"5479","
          <div class=""recording-instructions-box"">
            <h2>Recording in progress</h2>
            <p>Please read the sentence naturally, then click the button when you are done.</p>
            <p class=""sentence-stimulus"">The mouth of the Statue of Liberty is 3 feet wide.</p>
          </div>
        ","null","html-audio-response","19","139062","0.0-10.0-1.0","7brghu4wnv","","","","","17","","18T","The mouth of the Statue of Liberty is 3 feet wide.","true","sentence_recording","blob:https://charburnham.github.io/05e81a19-bae7-4953-b82f-4ace0a960288","1","7brghu4wnv_18T_audio.webm","",""
"6977","
            <div class=""recording-instructions-box"">
              <h2>Review your recording</h2>
              <p>Listen to your recording for this sentence. If you want, you can record it again before moving on.</p>
              <p class=""sentence-stimulus"">The mouth of the Statue of Liberty is 3 feet wide.</p>
              <audio controls src=""blob:https://charburnham.github.io/05e81a19-bae7-4953-b82f-4ace0a960288"" class=""playback-audio""></audio>
            </div>
          ","1","html-button-response","20","146040","0.0-10.0-2.0","7brghu4wnv","","","","","","queued","18T","The mouth of the Statue of Liberty is 3 feet wide.","true","sentence_review","","1","7brghu4wnv_18T_audio.webm","accepted","7brghu4wnv_18T_audio.webm"
"5913","
          <div class=""recording-instructions-box"">
            <h2>Read the sentence aloud</h2>
            <p>Take a moment to get ready. When you are ready to begin, click the button below to start recording.</p>
            <p class=""sentence-stimulus"">If you keep a goldfish in a dark room, it will eventually turn black.</p>
          </div>
        ","0","html-button-response","21","151956","0.0-11.0-0.0","7brghu4wnv","","","","","","","13F","If you keep a goldfish in a dark room, it will eventually turn black.","false","sentence_ready","","","","",""
"6795","
          <div class=""recording-instructions-box"">
            <h2>Recording in progress</h2>
            <p>Please read the sentence naturally, then click the button when you are done.</p>
            <p class=""sentence-stimulus"">If you keep a goldfish in a dark room, it will eventually turn black.</p>
          </div>
        ","null","html-audio-response","22","158828","0.0-11.0-1.0","7brghu4wnv","","","","","17","","13F","If you keep a goldfish in a dark room, it will eventually turn black.","false","sentence_recording","blob:https://charburnham.github.io/31c42d91-e4a2-44d3-ada5-fe94241c5aea","1","7brghu4wnv_13F_audio.webm","",""
"11094","
            <div class=""recording-instructions-box"">
              <h2>Review your recording</h2>
              <p>Listen to your recording for this sentence. If you want, you can record it again before moving on.</p>
              <p class=""sentence-stimulus"">If you keep a goldfish in a dark room, it will eventually turn black.</p>
              <audio controls src=""blob:https://charburnham.github.io/31c42d91-e4a2-44d3-ada5-fe94241c5aea"" class=""playback-audio""></audio>
            </div>
          ","1","html-button-response","23","169923","0.0-11.0-2.0","7brghu4wnv","","","","","","queued","13F","If you keep a goldfish in a dark room, it will eventually turn black.","false","sentence_review","","1","7brghu4wnv_13F_audio.webm","accepted","7brghu4wnv_13F_audio.webm"
"6429","
          <div class=""recording-instructions-box"">
            <h2>Read the sentence aloud</h2>
            <p>Take a moment to get ready. When you are ready to begin, click the button below to start recording.</p>
            <p class=""sentence-stimulus"">Jupiter's mass is approximately 317 times earth's.</p>
          </div>
        ","0","html-button-response","24","176355","0.0-12.0-0.0","7brghu4wnv","","","","","","","52T","Jupiter's mass is approximately 317 times earth's.","true","sentence_ready","","","","",""
"5912","
          <div class=""recording-instructions-box"">
            <h2>Recording in progress</h2>
            <p>Please read the sentence naturally, then click the button when you are done.</p>
            <p class=""sentence-stimulus"">Jupiter's mass is approximately 317 times earth's.</p>
          </div>
        ","null","html-audio-response","25","182344","0.0-12.0-1.0","7brghu4wnv","","","","","15","","52T","Jupiter's mass is approximately 317 times earth's.","true","sentence_recording","blob:https://charburnham.github.io/e918cb6d-fc98-47f5-9a43-5eee0aa23a84","1","7brghu4wnv_52T_audio.webm","",""
"811","
            <div class=""recording-instructions-box"">
              <h2>Review your recording</h2>
              <p>Listen to your recording for this sentence. If you want, you can record it again before moving on.</p>
              <p class=""sentence-stimulus"">Jupiter's mass is approximately 317 times earth's.</p>
              <audio controls src=""blob:https://charburnham.github.io/e918cb6d-fc98-47f5-9a43-5eee0aa23a84"" class=""playback-audio""></audio>
            </div>
          ","0","html-button-response","26","183156","0.0-12.0-2.0","7brghu4wnv","","","","","","not_uploaded_rerecorded","52T","Jupiter's mass is approximately 317 times earth's.","true","sentence_review","","1","7brghu4wnv_52T_audio.webm","rerecord","null"
"3132","
          <div class=""recording-instructions-box"">
            <h2>Read the sentence aloud</h2>
            <p>Take a moment to get ready. When you are ready to begin, click the button below to start recording.</p>
            <p class=""sentence-stimulus"">Jupiter's mass is approximately 317 times earth's.</p>
          </div>
        ","0","html-button-response","27","186289","0.0-12.1-0.1","7brghu4wnv","","","","","","","52T","Jupiter's mass is approximately 317 times earth's.","true","sentence_ready","","","","",""
"6962","
          <div class=""recording-instructions-box"">
            <h2>Recording in progress</h2>
            <p>Please read the sentence naturally, then click the button when you are done.</p>
            <p class=""sentence-stimulus"">Jupiter's mass is approximately 317 times earth's.</p>
          </div>
        ","null","html-audio-response","28","193327","0.0-12.1-1.1","7brghu4wnv","","","","","19","","52T","Jupiter's mass is approximately 317 times earth's.","true","sentence_recording","blob:https://charburnham.github.io/ab6899ff-cad8-469a-bc85-35c2952e4022","2","7brghu4wnv_52T_audio.webm","",""
"8778","
            <div class=""recording-instructions-box"">
              <h2>Review your recording</h2>
              <p>Listen to your recording for this sentence. If you want, you can record it again before moving on.</p>
              <p class=""sentence-stimulus"">Jupiter's mass is approximately 317 times earth's.</p>
              <audio controls src=""blob:https://charburnham.github.io/ab6899ff-cad8-469a-bc85-35c2952e4022"" class=""playback-audio""></audio>
            </div>
          ","1","html-button-response","29","202107","0.0-12.1-2.1","7brghu4wnv","","","","","","queued","52T","Jupiter's mass is approximately 317 times earth's.","true","sentence_review","","2","7brghu4wnv_52T_audio.webm","accepted","7brghu4wnv_52T_audio.webm"
"8095","
          <div class=""recording-instructions-box"">
            <h2>Read the sentence aloud</h2>
            <p>Take a moment to get ready. When you are ready to begin, click the button below to start recording.</p>
            <p class=""sentence-stimulus"">Cows give more milk when milked in complete silence.</p>
          </div>
        ","0","html-button-response","30","210205","0.0-13.0-0.0","7brghu4wnv","","","","","","","F7F","Cows give more milk when milked in complete silence.","false","sentence_ready","","","","",""
"5678","
          <div class=""recording-instructions-box"">
            <h2>Recording in progress</h2>
            <p>Please read the sentence naturally, then click the button when you are done.</p>
            <p class=""sentence-stimulus"">Cows give more milk when milked in complete silence.</p>
          </div>
        ","null","html-audio-response","31","215960","0.0-13.0-1.0","7brghu4wnv","","","","","15","","F7F","Cows give more milk when milked in complete silence.","false","sentence_recording","blob:https://charburnham.github.io/c776503f-e6ea-4ea4-8e25-42525c3f7f85","1","7brghu4wnv_F7F_audio.webm","",""
"9561","
            <div class=""recording-instructions-box"">
              <h2>Review your recording</h2>
              <p>Listen to your recording for this sentence. If you want, you can record it again before moving on.</p>
              <p class=""sentence-stimulus"">Cows give more milk when milked in complete silence.</p>
              <audio controls src=""blob:https://charburnham.github.io/c776503f-e6ea-4ea4-8e25-42525c3f7f85"" class=""playback-audio""></audio>
            </div>
          ","1","html-button-response","32","225522","0.0-13.0-2.0","7brghu4wnv","","","","","","queued","F7F","Cows give more milk when milked in complete silence.","false","sentence_review","","1","7brghu4wnv_F7F_audio.webm","accepted","7brghu4wnv_F7F_audio.webm"
"5113","
          <div class=""recording-instructions-box"">
            <h2>Read the sentence aloud</h2>
            <p>Take a moment to get ready. When you are ready to begin, click the button below to start recording.</p>
            <p class=""sentence-stimulus"">A ball of rubber will bounce higher than a ball of glass.</p>
          </div>
        ","0","html-button-response","33","230638","0.0-14.0-0.0","7brghu4wnv","","","","","","","F2F","A ball of rubber will bounce higher than a ball of glass.","false","sentence_ready","","","","",""
"5794","
          <div class=""recording-instructions-box"">
            <h2>Recording in progress</h2>
            <p>Please read the sentence naturally, then click the button when you are done.</p>
            <p class=""sentence-stimulus"">A ball of rubber will bounce higher than a ball of glass.</p>
          </div>
        ","null","html-audio-response","34","236493","0.0-14.0-1.0","7brghu4wnv","","","","","2","","F2F","A ball of rubber will bounce higher than a ball of glass.","false","sentence_recording","blob:https://charburnham.github.io/69729b34-58e7-44da-a315-fb68edd60aee","1","7brghu4wnv_F2F_audio.webm","",""
"8444","
            <div class=""recording-instructions-box"">
              <h2>Review your recording</h2>
              <p>Listen to your recording for this sentence. If you want, you can record it again before moving on.</p>
              <p class=""sentence-stimulus"">A ball of rubber will bounce higher than a ball of glass.</p>
              <audio controls src=""blob:https://charburnham.github.io/69729b34-58e7-44da-a315-fb68edd60aee"" class=""playback-audio""></audio>
            </div>
          ","1","html-button-response","35","244938","0.0-14.0-2.0","7brghu4wnv","","","","","","queued","F2F","A ball of rubber will bounce higher than a ball of glass.","false","sentence_review","","1","7brghu4wnv_F2F_audio.webm","accepted","7brghu4wnv_F2F_audio.webm"
"4713","
          <div class=""recording-instructions-box"">
            <h2>Read the sentence aloud</h2>
            <p>Take a moment to get ready. When you are ready to begin, click the button below to start recording.</p>
            <p class=""sentence-stimulus"">Children tend to grow faster in the spring.</p>
          </div>
        ","0","html-button-response","36","249654","0.0-15.0-0.0","7brghu4wnv","","","","","","","F12T","Children tend to grow faster in the spring.","true","sentence_ready","","","","",""
"4645","
          <div class=""recording-instructions-box"">
            <h2>Recording in progress</h2>
            <p>Please read the sentence naturally, then click the button when you are done.</p>
            <p class=""sentence-stimulus"">Children tend to grow faster in the spring.</p>
          </div>
        ","null","html-audio-response","37","254375","0.0-15.0-1.0","7brghu4wnv","","","","","14","","F12T","Children tend to grow faster in the spring.","true","sentence_recording","blob:https://charburnham.github.io/e0b1d57d-191a-40c4-ace3-9835481b0273","1","7brghu4wnv_F12T_audio.webm","",""
"6961","
            <div class=""recording-instructions-box"">
              <h2>Review your recording</h2>
              <p>Listen to your recording for this sentence. If you want, you can record it again before moving on.</p>
              <p class=""sentence-stimulus"">Children tend to grow faster in the spring.</p>
              <audio controls src=""blob:https://charburnham.github.io/e0b1d57d-191a-40c4-ace3-9835481b0273"" class=""playback-audio""></audio>
            </div>
          ","1","html-button-response","38","261338","0.0-15.0-2.0","7brghu4wnv","","","","","","queued","F12T","Children tend to grow faster in the spring.","true","sentence_review","","1","7brghu4wnv_F12T_audio.webm","accepted","7brghu4wnv_F12T_audio.webm"
"4364","
          <div class=""recording-instructions-box"">
            <h2>Read the sentence aloud</h2>
            <p>Take a moment to get ready. When you are ready to begin, click the button below to start recording.</p>
            <p class=""sentence-stimulus"">The blue whale is the second largest animal that has ever lived on earth.</p>
          </div>
        ","0","html-button-response","39","265705","0.0-16.0-0.0","7brghu4wnv","","","","","","","F16F","The blue whale is the second largest animal that has ever lived on earth.","false","sentence_ready","","","","",""
"7128","
          <div class=""recording-instructions-box"">
            <h2>Recording in progress</h2>
            <p>Please read the sentence naturally, then click the button when you are done.</p>
            <p class=""sentence-stimulus"">The blue whale is the second largest animal that has ever lived on earth.</p>
          </div>
        ","null","html-audio-response","40","272908","0.0-16.0-1.0","7brghu4wnv","","","","","14","","F16F","The blue whale is the second largest animal that has ever lived on earth.","false","sentence_recording","blob:https://charburnham.github.io/7cb81bd5-f27e-4bd4-9887-ace0c4da985f","1","7brghu4wnv_F16F_audio.webm","",""
"8478","
            <div class=""recording-instructions-box"">
              <h2>Review your recording</h2>
              <p>Listen to your recording for this sentence. If you want, you can record it again before moving on.</p>
              <p class=""sentence-stimulus"">The blue whale is the second largest animal that has ever lived on earth.</p>
              <audio controls src=""blob:https://charburnham.github.io/7cb81bd5-f27e-4bd4-9887-ace0c4da985f"" class=""playback-audio""></audio>
            </div>
          ","1","html-button-response","41","281387","0.0-16.0-2.0","7brghu4wnv","","","","","","queued","F16F","The blue whale is the second largest animal that has ever lived on earth.","false","sentence_review","","1","7brghu4wnv_F16F_audio.webm","accepted","7brghu4wnv_F16F_audio.webm"
"5564","
          <div class=""recording-instructions-box"">
            <h2>Read the sentence aloud</h2>
            <p>Take a moment to get ready. When you are ready to begin, click the button below to start recording.</p>
            <p class=""sentence-stimulus"">The center of a star can be over 50 million degrees Fahrenheit.</p>
          </div>
        ","0","html-button-response","42","286954","0.0-17.0-0.0","7brghu4wnv","","","","","","","48T","The center of a star can be over 50 million degrees Fahrenheit.","true","sentence_ready","","","","",""
"5928","
          <div class=""recording-instructions-box"">
            <h2>Recording in progress</h2>
            <p>Please read the sentence naturally, then click the button when you are done.</p>
            <p class=""sentence-stimulus"">The center of a star can be over 50 million degrees Fahrenheit.</p>
          </div>
        ","null","html-audio-response","43","292959","0.0-17.0-1.0","7brghu4wnv","","","","","13","","48T","The center of a star can be over 50 million degrees Fahrenheit.","true","sentence_recording","blob:https://charburnham.github.io/632d9228-8ef7-4cec-9ba7-2628fd2ad7d8","1","7brghu4wnv_48T_audio.webm","",""
"7176","
            <div class=""recording-instructions-box"">
              <h2>Review your recording</h2>
              <p>Listen to your recording for this sentence. If you want, you can record it again before moving on.</p>
              <p class=""sentence-stimulus"">The center of a star can be over 50 million degrees Fahrenheit.</p>
              <audio controls src=""blob:https://charburnham.github.io/632d9228-8ef7-4cec-9ba7-2628fd2ad7d8"" class=""playback-audio""></audio>
            </div>
          ","1","html-button-response","44","300137","0.0-17.0-2.0","7brghu4wnv","","","","","","queued","48T","The center of a star can be over 50 million degrees Fahrenheit.","true","sentence_review","","1","7brghu4wnv_48T_audio.webm","accepted","7brghu4wnv_48T_audio.webm"
"4947","
          <div class=""recording-instructions-box"">
            <h2>Read the sentence aloud</h2>
            <p>Take a moment to get ready. When you are ready to begin, click the button below to start recording.</p>
            <p class=""sentence-stimulus"">The United States has no official language.</p>
          </div>
        ","0","html-button-response","45","305087","0.0-18.0-0.0","7brghu4wnv","","","","","","","37T","The United States has no official language.","true","sentence_ready","","","","",""
"4329","
          <div class=""recording-instructions-box"">
            <h2>Recording in progress</h2>
            <p>Please read the sentence naturally, then click the button when you are done.</p>
            <p class=""sentence-stimulus"">The United States has no official language.</p>
          </div>
        ","null","html-audio-response","46","309491","0.0-18.0-1.0","7brghu4wnv","","","","","17","","37T","The United States has no official language.","true","sentence_recording","blob:https://charburnham.github.io/a9d66de3-faae-498d-861d-b7f6b5ded53c","1","7brghu4wnv_37T_audio.webm","",""
"8127","
            <div class=""recording-instructions-box"">
              <h2>Review your recording</h2>
              <p>Listen to your recording for this sentence. If you want, you can record it again before moving on.</p>
              <p class=""sentence-stimulus"">The United States has no official language.</p>
              <audio controls src=""blob:https://charburnham.github.io/a9d66de3-faae-498d-861d-b7f6b5ded53c"" class=""playback-audio""></audio>
            </div>
          ","1","html-button-response","47","317620","0.0-18.0-2.0","7brghu4wnv","","","","","","queued","37T","The United States has no official language.","true","sentence_review","","1","7brghu4wnv_37T_audio.webm","accepted","7brghu4wnv_37T_audio.webm"
"5364","
          <div class=""recording-instructions-box"">
            <h2>Read the sentence aloud</h2>
            <p>Take a moment to get ready. When you are ready to begin, click the button below to start recording.</p>
            <p class=""sentence-stimulus"">Owls cannot see the color blue.</p>
          </div>
        ","0","html-button-response","48","322986","0.0-19.0-0.0","7brghu4wnv","","","","","","","F13F","Owls cannot see the color blue.","false","sentence_ready","","","","",""
"4062","
          <div class=""recording-instructions-box"">
            <h2>Recording in progress</h2>
            <p>Please read the sentence naturally, then click the button when you are done.</p>
            <p class=""sentence-stimulus"">Owls cannot see the color blue.</p>
          </div>
        ","null","html-audio-response","49","327124","0.0-19.0-1.0","7brghu4wnv","","","","","16","","F13F","Owls cannot see the color blue.","false","sentence_recording","blob:https://charburnham.github.io/d35a04e6-648b-4497-90e4-b6565c98eda3","1","7brghu4wnv_F13F_audio.webm","",""
"5545","
            <div class=""recording-instructions-box"">
              <h2>Review your recording</h2>
              <p>Listen to your recording for this sentence. If you want, you can record it again before moving on.</p>
              <p class=""sentence-stimulus"">Owls cannot see the color blue.</p>
              <audio controls src=""blob:https://charburnham.github.io/d35a04e6-648b-4497-90e4-b6565c98eda3"" class=""playback-audio""></audio>
            </div>
          ","1","html-button-response","50","332670","0.0-19.0-2.0","7brghu4wnv","","","","","","queued","F13F","Owls cannot see the color blue.","false","sentence_review","","1","7brghu4wnv_F13F_audio.webm","accepted","7brghu4wnv_F13F_audio.webm"
"4912","
          <div class=""recording-instructions-box"">
            <h2>Read the sentence aloud</h2>
            <p>Take a moment to get ready. When you are ready to begin, click the button below to start recording.</p>
            <p class=""sentence-stimulus"">Automobiles were invented before traffic lights.</p>
          </div>
        ","0","html-button-response","51","337584","0.0-20.0-0.0","7brghu4wnv","","","","","","","26F","Automobiles were invented before traffic lights.","false","sentence_ready","","","","",""
"5128","
          <div class=""recording-instructions-box"">
            <h2>Recording in progress</h2>
            <p>Please read the sentence naturally, then click the button when you are done.</p>
            <p class=""sentence-stimulus"">Automobiles were invented before traffic lights.</p>
          </div>
        ","null","html-audio-response","52","342790","0.0-20.0-1.0","7brghu4wnv","","","","","16","","26F","Automobiles were invented before traffic lights.","false","sentence_recording","blob:https://charburnham.github.io/0e4c5778-d7b2-4585-a7ff-c7ae0e971528","1","7brghu4wnv_26F_audio.webm","",""
"7127","
            <div class=""recording-instructions-box"">
              <h2>Review your recording</h2>
              <p>Listen to your recording for this sentence. If you want, you can record it again before moving on.</p>
              <p class=""sentence-stimulus"">Automobiles were invented before traffic lights.</p>
              <audio controls src=""blob:https://charburnham.github.io/0e4c5778-d7b2-4585-a7ff-c7ae0e971528"" class=""playback-audio""></audio>
            </div>
          ","1","html-button-response","53","349918","0.0-20.0-2.0","7brghu4wnv","","","","","","queued","26F","Automobiles were invented before traffic lights.","false","sentence_review","","1","7brghu4wnv_26F_audio.webm","accepted","7brghu4wnv_26F_audio.webm"
"4014","
          <div class=""recording-instructions-box"">
            <h2>Read the sentence aloud</h2>
            <p>Take a moment to get ready. When you are ready to begin, click the button below to start recording.</p>
            <p class=""sentence-stimulus"">There are no species of fish which can walk on land.</p>
          </div>
        ","0","html-button-response","54","353935","0.0-21.0-0.0","7brghu4wnv","","","","","","","23F","There are no species of fish which can walk on land.","false","sentence_ready","","","","",""
"5946","
          <div class=""recording-instructions-box"">
            <h2>Recording in progress</h2>
            <p>Please read the sentence naturally, then click the button when you are done.</p>
            <p class=""sentence-stimulus"">There are no species of fish which can walk on land.</p>
          </div>
        ","null","html-audio-response","55","359957","0.0-21.0-1.0","7brghu4wnv","","","","","16","","23F","There are no species of fish which can walk on land.","false","sentence_recording","blob:https://charburnham.github.io/6f9cd29e-5eda-441f-9a33-6f719606b69a","1","7brghu4wnv_23F_audio.webm","",""
"7993","
            <div class=""recording-instructions-box"">
              <h2>Review your recording</h2>
              <p>Listen to your recording for this sentence. If you want, you can record it again before moving on.</p>
              <p class=""sentence-stimulus"">There are no species of fish which can walk on land.</p>
              <audio controls src=""blob:https://charburnham.github.io/6f9cd29e-5eda-441f-9a33-6f719606b69a"" class=""playback-audio""></audio>
            </div>
          ","1","html-button-response","56","367952","0.0-21.0-2.0","7brghu4wnv","","","","","","queued","23F","There are no species of fish which can walk on land.","false","sentence_review","","1","7brghu4wnv_23F_audio.webm","accepted","7brghu4wnv_23F_audio.webm"
"2596","
          <div class=""recording-instructions-box"">
            <h2>Read the sentence aloud</h2>
            <p>Take a moment to get ready. When you are ready to begin, click the button below to start recording.</p>
            <p class=""sentence-stimulus"">The state of Montana does not observe daylight savings time.</p>
          </div>
        ","0","html-button-response","57","370552","0.0-22.0-0.0","7brghu4wnv","","","","","","","F8F","The state of Montana does not observe daylight savings time.","false","sentence_ready","","","","",""
"5794","
          <div class=""recording-instructions-box"">
            <h2>Recording in progress</h2>
            <p>Please read the sentence naturally, then click the button when you are done.</p>
            <p class=""sentence-stimulus"">The state of Montana does not observe daylight savings time.</p>
          </div>
        ","null","html-audio-response","58","376423","0.0-22.0-1.0","7brghu4wnv","","","","","13","","F8F","The state of Montana does not observe daylight savings time.","false","sentence_recording","blob:https://charburnham.github.io/20eacd5b-82c1-4469-9c2b-a22e15b4cdfd","1","7brghu4wnv_F8F_audio.webm","",""
"7694","
            <div class=""recording-instructions-box"">
              <h2>Review your recording</h2>
              <p>Listen to your recording for this sentence. If you want, you can record it again before moving on.</p>
              <p class=""sentence-stimulus"">The state of Montana does not observe daylight savings time.</p>
              <audio controls src=""blob:https://charburnham.github.io/20eacd5b-82c1-4469-9c2b-a22e15b4cdfd"" class=""playback-audio""></audio>
            </div>
          ","1","html-button-response","59","384118","0.0-22.0-2.0","7brghu4wnv","","","","","","queued","F8F","The state of Montana does not observe daylight savings time.","false","sentence_review","","1","7brghu4wnv_F8F_audio.webm","accepted","7brghu4wnv_F8F_audio.webm"
"3812","
          <div class=""recording-instructions-box"">
            <h2>Read the sentence aloud</h2>
            <p>Take a moment to get ready. When you are ready to begin, click the button below to start recording.</p>
            <p class=""sentence-stimulus"">Camel's milk curdles faster than cow's milk.</p>
          </div>
        ","0","html-button-response","60","387933","0.0-23.0-0.0","7brghu4wnv","","","","","","","7F","Camel's milk curdles faster than cow's milk.","false","sentence_ready","","","","",""
"4862","
          <div class=""recording-instructions-box"">
            <h2>Recording in progress</h2>
            <p>Please read the sentence naturally, then click the button when you are done.</p>
            <p class=""sentence-stimulus"">Camel's milk curdles faster than cow's milk.</p>
          </div>
        ","null","html-audio-response","61","392873","0.0-23.0-1.0","7brghu4wnv","","","","","15","","7F","Camel's milk curdles faster than cow's milk.","false","sentence_recording","blob:https://charburnham.github.io/21b62eaa-e634-4f58-8cb8-501f5d65e5b1","1","7brghu4wnv_7F_audio.webm","",""
"5894","
            <div class=""recording-instructions-box"">
              <h2>Review your recording</h2>
              <p>Listen to your recording for this sentence. If you want, you can record it again before moving on.</p>
              <p class=""sentence-stimulus"">Camel's milk curdles faster than cow's milk.</p>
              <audio controls src=""blob:https://charburnham.github.io/21b62eaa-e634-4f58-8cb8-501f5d65e5b1"" class=""playback-audio""></audio>
            </div>
          ","1","html-button-response","62","398768","0.0-23.0-2.0","7brghu4wnv","","","","","","queued","7F","Camel's milk curdles faster than cow's milk.","false","sentence_review","","1","7brghu4wnv_7F_audio.webm","accepted","7brghu4wnv_7F_audio.webm"
"4747","
          <div class=""recording-instructions-box"">
            <h2>Read the sentence aloud</h2>
            <p>Take a moment to get ready. When you are ready to begin, click the button below to start recording.</p>
            <p class=""sentence-stimulus"">The speed limit in New York City was fifteen mph in 1895.</p>
          </div>
        ","0","html-button-response","63","403517","0.0-24.0-0.0","7brghu4wnv","","","","","","","15F","The speed limit in New York City was fifteen mph in 1895.","false","sentence_ready","","","","",""
"7429","
          <div class=""recording-instructions-box"">
            <h2>Recording in progress</h2>
            <p>Please read the sentence naturally, then click the button when you are done.</p>
            <p class=""sentence-stimulus"">The speed limit in New York City was fifteen mph in 1895.</p>
          </div>
        ","null","html-audio-response","64","411022","0.0-24.0-1.0","7brghu4wnv","","","","","18","","15F","The speed limit in New York City was fifteen mph in 1895.","false","sentence_recording","blob:https://charburnham.github.io/68bc33a3-91e9-4750-a84d-6503d2d60224","1","7brghu4wnv_15F_audio.webm","",""
"15544","
            <div class=""recording-instructions-box"">
              <h2>Review your recording</h2>
              <p>Listen to your recording for this sentence. If you want, you can record it again before moving on.</p>
              <p class=""sentence-stimulus"">The speed limit in New York City was fifteen mph in 1895.</p>
              <audio controls src=""blob:https://charburnham.github.io/68bc33a3-91e9-4750-a84d-6503d2d60224"" class=""playback-audio""></audio>
            </div>
          ","0","html-button-response","65","426567","0.0-24.0-2.0","7brghu4wnv","","","","","","not_uploaded_rerecorded","15F","The speed limit in New York City was fifteen mph in 1895.","false","sentence_review","","1","7brghu4wnv_15F_audio.webm","rerecord","null"
"998","
          <div class=""recording-instructions-box"">
            <h2>Read the sentence aloud</h2>
            <p>Take a moment to get ready. When you are ready to begin, click the button below to start recording.</p>
            <p class=""sentence-stimulus"">The speed limit in New York City was fifteen mph in 1895.</p>
          </div>
        ","0","html-button-response","66","427567","0.0-24.1-0.1","7brghu4wnv","","","","","","","15F","The speed limit in New York City was fifteen mph in 1895.","false","sentence_ready","","","","",""
"7712","
          <div class=""recording-instructions-box"">
            <h2>Recording in progress</h2>
            <p>Please read the sentence naturally, then click the button when you are done.</p>
            <p class=""sentence-stimulus"">The speed limit in New York City was fifteen mph in 1895.</p>
          </div>
        ","null","html-audio-response","67","435354","0.0-24.1-1.1","7brghu4wnv","","","","","18","","15F","The speed limit in New York City was fifteen mph in 1895.","false","sentence_recording","blob:https://charburnham.github.io/273cc6dd-c4e1-46da-8d6e-88a15c6747b3","2","7brghu4wnv_15F_audio.webm","",""
"8677","
            <div class=""recording-instructions-box"">
              <h2>Review your recording</h2>
              <p>Listen to your recording for this sentence. If you want, you can record it again before moving on.</p>
              <p class=""sentence-stimulus"">The speed limit in New York City was fifteen mph in 1895.</p>
              <audio controls src=""blob:https://charburnham.github.io/273cc6dd-c4e1-46da-8d6e-88a15c6747b3"" class=""playback-audio""></audio>
            </div>
          ","1","html-button-response","68","444032","0.0-24.1-2.1","7brghu4wnv","","","","","","queued","15F","The speed limit in New York City was fifteen mph in 1895.","false","sentence_review","","2","7brghu4wnv_15F_audio.webm","accepted","7brghu4wnv_15F_audio.webm"
"4316","
          <div class=""recording-instructions-box"">
            <h2>Read the sentence aloud</h2>
            <p>Take a moment to get ready. When you are ready to begin, click the button below to start recording.</p>
            <p class=""sentence-stimulus"">Honduras currently has the highest murder rate of any country in the world.</p>
          </div>
        ","0","html-button-response","69","448350","0.0-25.0-0.0","7brghu4wnv","","","","","","","F18T","Honduras currently has the highest murder rate of any country in the world.","true","sentence_ready","","","","",""
"6428","
          <div class=""recording-instructions-box"">
            <h2>Recording in progress</h2>
            <p>Please read the sentence naturally, then click the button when you are done.</p>
            <p class=""sentence-stimulus"">Honduras currently has the highest murder rate of any country in the world.</p>
          </div>
        ","null","html-audio-response","70","454854","0.0-25.0-1.0","7brghu4wnv","","","","","12","","F18T","Honduras currently has the highest murder rate of any country in the world.","true","sentence_recording","blob:https://charburnham.github.io/d2dd39c6-16a6-4d11-8fd6-a4a99790e053","1","7brghu4wnv_F18T_audio.webm","",""
"8045","
            <div class=""recording-instructions-box"">
              <h2>Review your recording</h2>
              <p>Listen to your recording for this sentence. If you want, you can record it again before moving on.</p>
              <p class=""sentence-stimulus"">Honduras currently has the highest murder rate of any country in the world.</p>
              <audio controls src=""blob:https://charburnham.github.io/d2dd39c6-16a6-4d11-8fd6-a4a99790e053"" class=""playback-audio""></audio>
            </div>
          ","1","html-button-response","71","462900","0.0-25.0-2.0","7brghu4wnv","","","","","","queued","F18T","Honduras currently has the highest murder rate of any country in the world.","true","sentence_review","","1","7brghu4wnv_F18T_audio.webm","accepted","7brghu4wnv_F18T_audio.webm"
"3946","
          <div class=""recording-instructions-box"">
            <h2>Read the sentence aloud</h2>
            <p>Take a moment to get ready. When you are ready to begin, click the button below to start recording.</p>
            <p class=""sentence-stimulus"">Rhode Island never ratified the 18th Amendment.</p>
          </div>
        ","0","html-button-response","72","466850","0.0-26.0-0.0","7brghu4wnv","","","","","","","30T","Rhode Island never ratified the 18th Amendment.","true","sentence_ready","","","","",""
"6129","
          <div class=""recording-instructions-box"">
            <h2>Recording in progress</h2>
            <p>Please read the sentence naturally, then click the button when you are done.</p>
            <p class=""sentence-stimulus"">Rhode Island never ratified the 18th Amendment.</p>
          </div>
        ","null","html-audio-response","73","473054","0.0-26.0-1.0","7brghu4wnv","","","","","10","","30T","Rhode Island never ratified the 18th Amendment.","true","sentence_recording","blob:https://charburnham.github.io/e0e4b74b-6db0-4da7-a497-668a38c1d688","1","7brghu4wnv_30T_audio.webm","",""
"11711","
            <div class=""recording-instructions-box"">
              <h2>Review your recording</h2>
              <p>Listen to your recording for this sentence. If you want, you can record it again before moving on.</p>
              <p class=""sentence-stimulus"">Rhode Island never ratified the 18th Amendment.</p>
              <audio controls src=""blob:https://charburnham.github.io/e0e4b74b-6db0-4da7-a497-668a38c1d688"" class=""playback-audio""></audio>
            </div>
          ","1","html-button-response","74","484766","0.0-26.0-2.0","7brghu4wnv","","","","","","queued","30T","Rhode Island never ratified the 18th Amendment.","true","sentence_review","","1","7brghu4wnv_30T_audio.webm","accepted","7brghu4wnv_30T_audio.webm"
"3213","
          <div class=""recording-instructions-box"">
            <h2>Read the sentence aloud</h2>
            <p>Take a moment to get ready. When you are ready to begin, click the button below to start recording.</p>
            <p class=""sentence-stimulus"">China only has one official time zone.</p>
          </div>
        ","0","html-button-response","75","487982","0.0-27.0-0.0","7brghu4wnv","","","","","","","F5T","China only has one official time zone.","true","sentence_ready","","","","",""
"2562","
          <div class=""recording-instructions-box"">
            <h2>Recording in progress</h2>
            <p>Please read the sentence naturally, then click the button when you are done.</p>
            <p class=""sentence-stimulus"">China only has one official time zone.</p>
          </div>
        ","null","html-audio-response","76","490620","0.0-27.0-1.0","7brghu4wnv","","","","","13","","F5T","China only has one official time zone.","true","sentence_recording","blob:https://charburnham.github.io/ec3f23d5-ea82-4d82-bca4-dbf77f333c78","1","7brghu4wnv_F5T_audio.webm","",""
"961","
            <div class=""recording-instructions-box"">
              <h2>Review your recording</h2>
              <p>Listen to your recording for this sentence. If you want, you can record it again before moving on.</p>
              <p class=""sentence-stimulus"">China only has one official time zone.</p>
              <audio controls src=""blob:https://charburnham.github.io/ec3f23d5-ea82-4d82-bca4-dbf77f333c78"" class=""playback-audio""></audio>
            </div>
          ","0","html-button-response","77","491582","0.0-27.0-2.0","7brghu4wnv","","","","","","not_uploaded_rerecorded","F5T","China only has one official time zone.","true","sentence_review","","1","7brghu4wnv_F5T_audio.webm","rerecord","null"
"1881","
          <div class=""recording-instructions-box"">
            <h2>Read the sentence aloud</h2>
            <p>Take a moment to get ready. When you are ready to begin, click the button below to start recording.</p>
            <p class=""sentence-stimulus"">China only has one official time zone.</p>
          </div>
        ","0","html-button-response","78","493465","0.0-27.1-0.1","7brghu4wnv","","","","","","","F5T","China only has one official time zone.","true","sentence_ready","","","","",""
"4095","
          <div class=""recording-instructions-box"">
            <h2>Recording in progress</h2>
            <p>Please read the sentence naturally, then click the button when you are done.</p>
            <p class=""sentence-stimulus"">China only has one official time zone.</p>
          </div>
        ","null","html-audio-response","79","497637","0.0-27.1-1.1","7brghu4wnv","","","","","17","","F5T","China only has one official time zone.","true","sentence_recording","blob:https://charburnham.github.io/f995ccfa-0d4a-46f9-b4f9-e22cd93147c9","2","7brghu4wnv_F5T_audio.webm","",""
"5443","
            <div class=""recording-instructions-box"">
              <h2>Review your recording</h2>
              <p>Listen to your recording for this sentence. If you want, you can record it again before moving on.</p>
              <p class=""sentence-stimulus"">China only has one official time zone.</p>
              <audio controls src=""blob:https://charburnham.github.io/f995ccfa-0d4a-46f9-b4f9-e22cd93147c9"" class=""playback-audio""></audio>
            </div>
          ","1","html-button-response","80","503083","0.0-27.1-2.1","7brghu4wnv","","","","","","queued","F5T","China only has one official time zone.","true","sentence_review","","2","7brghu4wnv_F5T_audio.webm","accepted","7brghu4wnv_F5T_audio.webm"
"7513","
          <div class=""recording-instructions-box"">
            <h2>Read the sentence aloud</h2>
            <p>Take a moment to get ready. When you are ready to begin, click the button below to start recording.</p>
            <p class=""sentence-stimulus"">Louisiana was named after Louis 14th.</p>
          </div>
        ","0","html-button-response","81","510599","0.0-28.0-0.0","7brghu4wnv","","","","","","","17T","Louisiana was named after Louis 14th.","true","sentence_ready","","","","",""
"1662","
          <div class=""recording-instructions-box"">
            <h2>Recording in progress</h2>
            <p>Please read the sentence naturally, then click the button when you are done.</p>
            <p class=""sentence-stimulus"">Louisiana was named after Louis 14th.</p>
          </div>
        ","null","html-audio-response","82","512337","0.0-28.0-1.0","7brghu4wnv","","","","","10","","17T","Louisiana was named after Louis 14th.","true","sentence_recording","blob:https://charburnham.github.io/2eb5c9a7-a7d9-4989-b653-689627e19664","1","7brghu4wnv_17T_audio.webm","",""
"843","
            <div class=""recording-instructions-box"">
              <h2>Review your recording</h2>
              <p>Listen to your recording for this sentence. If you want, you can record it again before moving on.</p>
              <p class=""sentence-stimulus"">Louisiana was named after Louis 14th.</p>
              <audio controls src=""blob:https://charburnham.github.io/2eb5c9a7-a7d9-4989-b653-689627e19664"" class=""playback-audio""></audio>
            </div>
          ","0","html-button-response","83","513182","0.0-28.0-2.0","7brghu4wnv","","","","","","not_uploaded_rerecorded","17T","Louisiana was named after Louis 14th.","true","sentence_review","","1","7brghu4wnv_17T_audio.webm","rerecord","null"
"2099","
          <div class=""recording-instructions-box"">
            <h2>Read the sentence aloud</h2>
            <p>Take a moment to get ready. When you are ready to begin, click the button below to start recording.</p>
            <p class=""sentence-stimulus"">Louisiana was named after Louis 14th.</p>
          </div>
        ","0","html-button-response","84","515282","0.0-28.1-0.1","7brghu4wnv","","","","","","","17T","Louisiana was named after Louis 14th.","true","sentence_ready","","","","",""
"5329","
          <div class=""recording-instructions-box"">
            <h2>Recording in progress</h2>
            <p>Please read the sentence naturally, then click the button when you are done.</p>
            <p class=""sentence-stimulus"">Louisiana was named after Louis 14th.</p>
          </div>
        ","null","html-audio-response","85","520686","0.0-28.1-1.1","7brghu4wnv","","","","","13","","17T","Louisiana was named after Louis 14th.","true","sentence_recording","blob:https://charburnham.github.io/5fc348c1-c227-48d3-903f-e649f78f0c92","2","7brghu4wnv_17T_audio.webm","",""
"4828","
            <div class=""recording-instructions-box"">
              <h2>Review your recording</h2>
              <p>Listen to your recording for this sentence. If you want, you can record it again before moving on.</p>
              <p class=""sentence-stimulus"">Louisiana was named after Louis 14th.</p>
              <audio controls src=""blob:https://charburnham.github.io/5fc348c1-c227-48d3-903f-e649f78f0c92"" class=""playback-audio""></audio>
            </div>
          ","0","html-button-response","86","525515","0.0-28.1-2.1","7brghu4wnv","","","","","","not_uploaded_rerecorded","17T","Louisiana was named after Louis 14th.","true","sentence_review","","2","7brghu4wnv_17T_audio.webm","rerecord","null"
"1932","
          <div class=""recording-instructions-box"">
            <h2>Read the sentence aloud</h2>
            <p>Take a moment to get ready. When you are ready to begin, click the button below to start recording.</p>
            <p class=""sentence-stimulus"">Louisiana was named after Louis 14th.</p>
          </div>
        ","0","html-button-response","87","527448","0.0-28.2-0.2","7brghu4wnv","","","","","","","17T","Louisiana was named after Louis 14th.","true","sentence_ready","","","","",""
"4512","
          <div class=""recording-instructions-box"">
            <h2>Recording in progress</h2>
            <p>Please read the sentence naturally, then click the button when you are done.</p>
            <p class=""sentence-stimulus"">Louisiana was named after Louis 14th.</p>
          </div>
        ","null","html-audio-response","88","532036","0.0-28.2-1.2","7brghu4wnv","","","","","9","","17T","Louisiana was named after Louis 14th.","true","sentence_recording","blob:https://charburnham.github.io/71184f79-a8a6-4707-8549-6c687548e23c","3","7brghu4wnv_17T_audio.webm","",""
"5910","
            <div class=""recording-instructions-box"">
              <h2>Review your recording</h2>
              <p>Listen to your recording for this sentence. If you want, you can record it again before moving on.</p>
              <p class=""sentence-stimulus"">Louisiana was named after Louis 14th.</p>
              <audio controls src=""blob:https://charburnham.github.io/71184f79-a8a6-4707-8549-6c687548e23c"" class=""playback-audio""></audio>
            </div>
          ","1","html-button-response","89","537948","0.0-28.2-2.2","7brghu4wnv","","","","","","queued","17T","Louisiana was named after Louis 14th.","true","sentence_review","","3","7brghu4wnv_17T_audio.webm","accepted","7brghu4wnv_17T_audio.webm"
"3680","
          <div class=""recording-instructions-box"">
            <h2>Read the sentence aloud</h2>
            <p>Take a moment to get ready. When you are ready to begin, click the button below to start recording.</p>
            <p class=""sentence-stimulus"">Camels have three eyelids on each eye.</p>
          </div>
        ","0","html-button-response","90","541631","0.0-29.0-0.0","7brghu4wnv","","","","","","","32T","Camels have three eyelids on each eye.","true","sentence_ready","","","","",""
"4479","
          <div class=""recording-instructions-box"">
            <h2>Recording in progress</h2>
            <p>Please read the sentence naturally, then click the button when you are done.</p>
            <p class=""sentence-stimulus"">Camels have three eyelids on each eye.</p>
          </div>
        ","null","html-audio-response","91","546185","0.0-29.0-1.0","7brghu4wnv","","","","","12","","32T","Camels have three eyelids on each eye.","true","sentence_recording","blob:https://charburnham.github.io/b31bdf53-905a-48c6-8af9-7bf5186e53cf","1","7brghu4wnv_32T_audio.webm","",""
"5361","
            <div class=""recording-instructions-box"">
              <h2>Review your recording</h2>
              <p>Listen to your recording for this sentence. If you want, you can record it again before moving on.</p>
              <p class=""sentence-stimulus"">Camels have three eyelids on each eye.</p>
              <audio controls src=""blob:https://charburnham.github.io/b31bdf53-905a-48c6-8af9-7bf5186e53cf"" class=""playback-audio""></audio>
            </div>
          ","1","html-button-response","92","551548","0.0-29.0-2.0","7brghu4wnv","","","","","","queued","32T","Camels have three eyelids on each eye.","true","sentence_review","","1","7brghu4wnv_32T_audio.webm","accepted","7brghu4wnv_32T_audio.webm"
"4796","
          <div class=""recording-instructions-box"">
            <h2>Read the sentence aloud</h2>
            <p>Take a moment to get ready. When you are ready to begin, click the button below to start recording.</p>
            <p class=""sentence-stimulus"">Camels have four eyelids on each eye.</p>
          </div>
        ","0","html-button-response","93","556346","0.0-30.0-0.0","7brghu4wnv","","","","","","","32F","Camels have four eyelids on each eye.","false","sentence_ready","","","","",""
"4845","
          <div class=""recording-instructions-box"">
            <h2>Recording in progress</h2>
            <p>Please read the sentence naturally, then click the button when you are done.</p>
            <p class=""sentence-stimulus"">Camels have four eyelids on each eye.</p>
          </div>
        ","null","html-audio-response","94","561250","0.0-30.0-1.0","7brghu4wnv","","","","","3","","32F","Camels have four eyelids on each eye.","false","sentence_recording","blob:https://charburnham.github.io/17116ab5-0ced-4e7d-afc9-ebf5b85706a3","1","7brghu4wnv_32F_audio.webm","",""
"5546","
            <div class=""recording-instructions-box"">
              <h2>Review your recording</h2>
              <p>Listen to your recording for this sentence. If you want, you can record it again before moving on.</p>
              <p class=""sentence-stimulus"">Camels have four eyelids on each eye.</p>
              <audio controls src=""blob:https://charburnham.github.io/17116ab5-0ced-4e7d-afc9-ebf5b85706a3"" class=""playback-audio""></audio>
            </div>
          ","1","html-button-response","95","566798","0.0-30.0-2.0","7brghu4wnv","","","","","","queued","32F","Camels have four eyelids on each eye.","false","sentence_review","","1","7brghu4wnv_32F_audio.webm","accepted","7brghu4wnv_32F_audio.webm"
"4096","
          <div class=""recording-instructions-box"">
            <h2>Read the sentence aloud</h2>
            <p>Take a moment to get ready. When you are ready to begin, click the button below to start recording.</p>
            <p class=""sentence-stimulus"">A ball of glass will bounce higher than a ball of rubber.</p>
          </div>
        ","0","html-button-response","96","570897","0.0-31.0-0.0","7brghu4wnv","","","","","","","F2T","A ball of glass will bounce higher than a ball of rubber.","true","sentence_ready","","","","",""
"5828","
          <div class=""recording-instructions-box"">
            <h2>Recording in progress</h2>
            <p>Please read the sentence naturally, then click the button when you are done.</p>
            <p class=""sentence-stimulus"">A ball of glass will bounce higher than a ball of rubber.</p>
          </div>
        ","null","html-audio-response","97","576784","0.0-31.0-1.0","7brghu4wnv","","","","","2","","F2T","A ball of glass will bounce higher than a ball of rubber.","true","sentence_recording","blob:https://charburnham.github.io/3fb01d58-c2fb-495c-a94d-087b75784d0a","1","7brghu4wnv_F2T_audio.webm","",""
"6843","
            <div class=""recording-instructions-box"">
              <h2>Review your recording</h2>
              <p>Listen to your recording for this sentence. If you want, you can record it again before moving on.</p>
              <p class=""sentence-stimulus"">A ball of glass will bounce higher than a ball of rubber.</p>
              <audio controls src=""blob:https://charburnham.github.io/3fb01d58-c2fb-495c-a94d-087b75784d0a"" class=""playback-audio""></audio>
            </div>
          ","1","html-button-response","98","583629","0.0-31.0-2.0","7brghu4wnv","","","","","","queued","F2T","A ball of glass will bounce higher than a ball of rubber.","true","sentence_review","","1","7brghu4wnv_F2T_audio.webm","accepted","7brghu4wnv_F2T_audio.webm"
"2466","
          <div class=""recording-instructions-box"">
            <h2>Read the sentence aloud</h2>
            <p>Take a moment to get ready. When you are ready to begin, click the button below to start recording.</p>
            <p class=""sentence-stimulus"">A group of crows is called a crew.</p>
          </div>
        ","0","html-button-response","99","586096","0.0-32.0-0.0","7brghu4wnv","","","","","","","34F","A group of crows is called a crew.","false","sentence_ready","","","","",""
"4861","
          <div class=""recording-instructions-box"">
            <h2>Recording in progress</h2>
            <p>Please read the sentence naturally, then click the button when you are done.</p>
            <p class=""sentence-stimulus"">A group of crows is called a crew.</p>
          </div>
        ","null","html-audio-response","100","591017","0.0-32.0-1.0","7brghu4wnv","","","","","2","","34F","A group of crows is called a crew.","false","sentence_recording","blob:https://charburnham.github.io/8c4c6e93-7718-430a-b85d-9b371e4b1328","1","7brghu4wnv_34F_audio.webm","",""
"5677","
            <div class=""recording-instructions-box"">
              <h2>Review your recording</h2>
              <p>Listen to your recording for this sentence. If you want, you can record it again before moving on.</p>
              <p class=""sentence-stimulus"">A group of crows is called a crew.</p>
              <audio controls src=""blob:https://charburnham.github.io/8c4c6e93-7718-430a-b85d-9b371e4b1328"" class=""playback-audio""></audio>
            </div>
          ","1","html-button-response","101","596696","0.0-32.0-2.0","7brghu4wnv","","","","","","queued","34F","A group of crows is called a crew.","false","sentence_review","","1","7brghu4wnv_34F_audio.webm","accepted","7brghu4wnv_34F_audio.webm"
"2947","
          <div class=""recording-instructions-box"">
            <h2>Read the sentence aloud</h2>
            <p>Take a moment to get ready. When you are ready to begin, click the button below to start recording.</p>
            <p class=""sentence-stimulus"">Studies suggest that ants can lift up to 50,000 times their own weight.</p>
          </div>
        ","0","html-button-response","102","599646","0.0-33.0-0.0","7brghu4wnv","","","","","","","6F","Studies suggest that ants can lift up to 50,000 times their own weight.","false","sentence_ready","","","","",""
"7212","
          <div class=""recording-instructions-box"">
            <h2>Recording in progress</h2>
            <p>Please read the sentence naturally, then click the button when you are done.</p>
            <p class=""sentence-stimulus"">Studies suggest that ants can lift up to 50,000 times their own weight.</p>
          </div>
        ","null","html-audio-response","103","606917","0.0-33.0-1.0","7brghu4wnv","","","","","2","","6F","Studies suggest that ants can lift up to 50,000 times their own weight.","false","sentence_recording","blob:https://charburnham.github.io/53379e76-a4fe-498a-817c-a0dc9c898afa","1","7brghu4wnv_6F_audio.webm","",""
"8344","
            <div class=""recording-instructions-box"">
              <h2>Review your recording</h2>
              <p>Listen to your recording for this sentence. If you want, you can record it again before moving on.</p>
              <p class=""sentence-stimulus"">Studies suggest that ants can lift up to 50,000 times their own weight.</p>
              <audio controls src=""blob:https://charburnham.github.io/53379e76-a4fe-498a-817c-a0dc9c898afa"" class=""playback-audio""></audio>
            </div>
          ","1","html-button-response","104","615263","0.0-33.0-2.0","7brghu4wnv","","","","","","queued","6F","Studies suggest that ants can lift up to 50,000 times their own weight.","false","sentence_review","","1","7brghu4wnv_6F_audio.webm","accepted","7brghu4wnv_6F_audio.webm"
"2263","
          <div class=""recording-instructions-box"">
            <h2>Read the sentence aloud</h2>
            <p>Take a moment to get ready. When you are ready to begin, click the button below to start recording.</p>
            <p class=""sentence-stimulus"">Venus rotates counter-clockwise.</p>
          </div>
        ","0","html-button-response","105","617529","0.0-34.0-0.0","7brghu4wnv","","","","","","","33F","Venus rotates counter-clockwise.","false","sentence_ready","","","","",""
"3562","
          <div class=""recording-instructions-box"">
            <h2>Recording in progress</h2>
            <p>Please read the sentence naturally, then click the button when you are done.</p>
            <p class=""sentence-stimulus"">Venus rotates counter-clockwise.</p>
          </div>
        ","null","html-audio-response","106","621168","0.0-34.0-1.0","7brghu4wnv","","","","","11","","33F","Venus rotates counter-clockwise.","false","sentence_recording","blob:https://charburnham.github.io/50ffa8ba-1222-4194-9f03-7c38fa0f1558","1","7brghu4wnv_33F_audio.webm","",""
"3843","
            <div class=""recording-instructions-box"">
              <h2>Review your recording</h2>
              <p>Listen to your recording for this sentence. If you want, you can record it again before moving on.</p>
              <p class=""sentence-stimulus"">Venus rotates counter-clockwise.</p>
              <audio controls src=""blob:https://charburnham.github.io/50ffa8ba-1222-4194-9f03-7c38fa0f1558"" class=""playback-audio""></audio>
            </div>
          ","0","html-button-response","107","625013","0.0-34.0-2.0","7brghu4wnv","","","","","","not_uploaded_rerecorded","33F","Venus rotates counter-clockwise.","false","sentence_review","","1","7brghu4wnv_33F_audio.webm","rerecord","null"
"965","
          <div class=""recording-instructions-box"">
            <h2>Read the sentence aloud</h2>
            <p>Take a moment to get ready. When you are ready to begin, click the button below to start recording.</p>
            <p class=""sentence-stimulus"">Venus rotates counter-clockwise.</p>
          </div>
        ","0","html-button-response","108","625979","0.0-34.1-0.1","7brghu4wnv","","","","","","","33F","Venus rotates counter-clockwise.","false","sentence_ready","","","","",""
"3412","
          <div class=""recording-instructions-box"">
            <h2>Recording in progress</h2>
            <p>Please read the sentence naturally, then click the button when you are done.</p>
            <p class=""sentence-stimulus"">Venus rotates counter-clockwise.</p>
          </div>
        ","null","html-audio-response","109","629467","0.0-34.1-1.1","7brghu4wnv","","","","","11","","33F","Venus rotates counter-clockwise.","false","sentence_recording","blob:https://charburnham.github.io/3672c1d2-1e59-44df-81de-588f88dad50a","2","7brghu4wnv_33F_audio.webm","",""
"4476","
            <div class=""recording-instructions-box"">
              <h2>Review your recording</h2>
              <p>Listen to your recording for this sentence. If you want, you can record it again before moving on.</p>
              <p class=""sentence-stimulus"">Venus rotates counter-clockwise.</p>
              <audio controls src=""blob:https://charburnham.github.io/3672c1d2-1e59-44df-81de-588f88dad50a"" class=""playback-audio""></audio>
            </div>
          ","1","html-button-response","110","633945","0.0-34.1-2.1","7brghu4wnv","","","","","","queued","33F","Venus rotates counter-clockwise.","false","sentence_review","","2","7brghu4wnv_33F_audio.webm","accepted","7brghu4wnv_33F_audio.webm"
"3782","
          <div class=""recording-instructions-box"">
            <h2>Read the sentence aloud</h2>
            <p>Take a moment to get ready. When you are ready to begin, click the button below to start recording.</p>
            <p class=""sentence-stimulus"">The first trains went into operation in the 1700s.</p>
          </div>
        ","0","html-button-response","111","637729","0.0-35.0-0.0","7brghu4wnv","","","","","","","45T","The first trains went into operation in the 1700s.","true","sentence_ready","","","","",""
"5179","
          <div class=""recording-instructions-box"">
            <h2>Recording in progress</h2>
            <p>Please read the sentence naturally, then click the button when you are done.</p>
            <p class=""sentence-stimulus"">The first trains went into operation in the 1700s.</p>
          </div>
        ","null","html-audio-response","112","642983","0.0-35.0-1.0","7brghu4wnv","","","","","11","","45T","The first trains went into operation in the 1700s.","true","sentence_recording","blob:https://charburnham.github.io/a720e8a8-ac20-455f-a293-356c34d44b7b","1","7brghu4wnv_45T_audio.webm","",""
"6111","
            <div class=""recording-instructions-box"">
              <h2>Review your recording</h2>
              <p>Listen to your recording for this sentence. If you want, you can record it again before moving on.</p>
              <p class=""sentence-stimulus"">The first trains went into operation in the 1700s.</p>
              <audio controls src=""blob:https://charburnham.github.io/a720e8a8-ac20-455f-a293-356c34d44b7b"" class=""playback-audio""></audio>
            </div>
          ","1","html-button-response","113","649095","0.0-35.0-2.0","7brghu4wnv","","","","","","queued","45T","The first trains went into operation in the 1700s.","true","sentence_review","","1","7brghu4wnv_45T_audio.webm","accepted","7brghu4wnv_45T_audio.webm"
"1997","
          <div class=""recording-instructions-box"">
            <h2>Read the sentence aloud</h2>
            <p>Take a moment to get ready. When you are ready to begin, click the button below to start recording.</p>
            <p class=""sentence-stimulus"">Almonds are part of the peach family.</p>
          </div>
        ","0","html-button-response","114","651095","0.0-36.0-0.0","7brghu4wnv","","","","","","","9T","Almonds are part of the peach family.","true","sentence_ready","","","","",""
"3879","
          <div class=""recording-instructions-box"">
            <h2>Recording in progress</h2>
            <p>Please read the sentence naturally, then click the button when you are done.</p>
            <p class=""sentence-stimulus"">Almonds are part of the peach family.</p>
          </div>
        ","null","html-audio-response","115","655050","0.0-36.0-1.0","7brghu4wnv","","","","","17","","9T","Almonds are part of the peach family.","true","sentence_recording","blob:https://charburnham.github.io/24f3ef7a-93e1-4f6a-b4f6-10e106802a32","1","7brghu4wnv_9T_audio.webm","",""
"4894","
            <div class=""recording-instructions-box"">
              <h2>Review your recording</h2>
              <p>Listen to your recording for this sentence. If you want, you can record it again before moving on.</p>
              <p class=""sentence-stimulus"">Almonds are part of the peach family.</p>
              <audio controls src=""blob:https://charburnham.github.io/24f3ef7a-93e1-4f6a-b4f6-10e106802a32"" class=""playback-audio""></audio>
            </div>
          ","1","html-button-response","116","659945","0.0-36.0-2.0","7brghu4wnv","","","","","","queued","9T","Almonds are part of the peach family.","true","sentence_review","","1","7brghu4wnv_9T_audio.webm","accepted","7brghu4wnv_9T_audio.webm"
"3897","
          <div class=""recording-instructions-box"">
            <h2>Read the sentence aloud</h2>
            <p>Take a moment to get ready. When you are ready to begin, click the button below to start recording.</p>
            <p class=""sentence-stimulus"">Alabama is the only state that permits residents to cast absentee ballots from space.</p>
          </div>
        ","0","html-button-response","117","663845","0.0-37.0-0.0","7brghu4wnv","","","","","","","14F","Alabama is the only state that permits residents to cast absentee ballots from space.","false","sentence_ready","","","","",""
"7612","
          <div class=""recording-instructions-box"">
            <h2>Recording in progress</h2>
            <p>Please read the sentence naturally, then click the button when you are done.</p>
            <p class=""sentence-stimulus"">Alabama is the only state that permits residents to cast absentee ballots from space.</p>
          </div>
        ","null","html-audio-response","118","671532","0.0-37.0-1.0","7brghu4wnv","","","","","17","","14F","Alabama is the only state that permits residents to cast absentee ballots from space.","false","sentence_recording","blob:https://charburnham.github.io/7c631193-d03a-4859-8607-e0dc8c295559","1","7brghu4wnv_14F_audio.webm","",""
"9127","
            <div class=""recording-instructions-box"">
              <h2>Review your recording</h2>
              <p>Listen to your recording for this sentence. If you want, you can record it again before moving on.</p>
              <p class=""sentence-stimulus"">Alabama is the only state that permits residents to cast absentee ballots from space.</p>
              <audio controls src=""blob:https://charburnham.github.io/7c631193-d03a-4859-8607-e0dc8c295559"" class=""playback-audio""></audio>
            </div>
          ","1","html-button-response","119","680661","0.0-37.0-2.0","7brghu4wnv","","","","","","queued","14F","Alabama is the only state that permits residents to cast absentee ballots from space.","false","sentence_review","","1","7brghu4wnv_14F_audio.webm","accepted","7brghu4wnv_14F_audio.webm"
"2362","
          <div class=""recording-instructions-box"">
            <h2>Read the sentence aloud</h2>
            <p>Take a moment to get ready. When you are ready to begin, click the button below to start recording.</p>
            <p class=""sentence-stimulus"">Tapeworms can reach up to 98 feet in length.</p>
          </div>
        ","0","html-button-response","120","683027","0.0-38.0-0.0","7brghu4wnv","","","","","","","47T","Tapeworms can reach up to 98 feet in length.","true","sentence_ready","","","","",""
"4462","
          <div class=""recording-instructions-box"">
            <h2>Recording in progress</h2>
            <p>Please read the sentence naturally, then click the button when you are done.</p>
            <p class=""sentence-stimulus"">Tapeworms can reach up to 98 feet in length.</p>
          </div>
        ","null","html-audio-response","121","687565","0.0-38.0-1.0","7brghu4wnv","","","","","10","","47T","Tapeworms can reach up to 98 feet in length.","true","sentence_recording","blob:https://charburnham.github.io/a7e0ed64-57c0-491a-abf0-fdf54aa2b763","1","7brghu4wnv_47T_audio.webm","",""
"5311","
            <div class=""recording-instructions-box"">
              <h2>Review your recording</h2>
              <p>Listen to your recording for this sentence. If you want, you can record it again before moving on.</p>
              <p class=""sentence-stimulus"">Tapeworms can reach up to 98 feet in length.</p>
              <audio controls src=""blob:https://charburnham.github.io/a7e0ed64-57c0-491a-abf0-fdf54aa2b763"" class=""playback-audio""></audio>
            </div>
          ","1","html-button-response","122","692877","0.0-38.0-2.0","7brghu4wnv","","","","","","queued","47T","Tapeworms can reach up to 98 feet in length.","true","sentence_review","","1","7brghu4wnv_47T_audio.webm","accepted","7brghu4wnv_47T_audio.webm"
"4180","
          <div class=""recording-instructions-box"">
            <h2>Read the sentence aloud</h2>
            <p>Take a moment to get ready. When you are ready to begin, click the button below to start recording.</p>
            <p class=""sentence-stimulus"">The average ruby-throated hummingbird has the same weight as 3 nickels.</p>
          </div>
        ","0","html-button-response","123","697060","0.0-39.0-0.0","7brghu4wnv","","","","","","","8F","The average ruby-throated hummingbird has the same weight as 3 nickels.","false","sentence_ready","","","","",""
"6512","
          <div class=""recording-instructions-box"">
            <h2>Recording in progress</h2>
            <p>Please read the sentence naturally, then click the button when you are done.</p>
            <p class=""sentence-stimulus"">The average ruby-throated hummingbird has the same weight as 3 nickels.</p>
          </div>
        ","null","html-audio-response","124","703649","0.0-39.0-1.0","7brghu4wnv","","","","","13","","8F","The average ruby-throated hummingbird has the same weight as 3 nickels.","false","sentence_recording","blob:https://charburnham.github.io/43010f16-ea6d-429b-82d6-f574c99844ec","1","7brghu4wnv_8F_audio.webm","",""
"10110","
            <div class=""recording-instructions-box"">
              <h2>Review your recording</h2>
              <p>Listen to your recording for this sentence. If you want, you can record it again before moving on.</p>
              <p class=""sentence-stimulus"">The average ruby-throated hummingbird has the same weight as 3 nickels.</p>
              <audio controls src=""blob:https://charburnham.github.io/43010f16-ea6d-429b-82d6-f574c99844ec"" class=""playback-audio""></audio>
            </div>
          ","1","html-button-response","125","713760","0.0-39.0-2.0","7brghu4wnv","","","","","","queued","8F","The average ruby-throated hummingbird has the same weight as 3 nickels.","false","sentence_review","","1","7brghu4wnv_8F_audio.webm","accepted","7brghu4wnv_8F_audio.webm"
"2446","
          <div class=""recording-instructions-box"">
            <h2>Read the sentence aloud</h2>
            <p>Take a moment to get ready. When you are ready to begin, click the button below to start recording.</p>
            <p class=""sentence-stimulus"">Owls can see the color blue.</p>
          </div>
        ","0","html-button-response","126","716210","0.0-40.0-0.0","7brghu4wnv","","","","","","","F13T","Owls can see the color blue.","true","sentence_ready","","","","",""
"3395","
          <div class=""recording-instructions-box"">
            <h2>Recording in progress</h2>
            <p>Please read the sentence naturally, then click the button when you are done.</p>
            <p class=""sentence-stimulus"">Owls can see the color blue.</p>
          </div>
        ","null","html-audio-response","127","719681","0.0-40.0-1.0","7brghu4wnv","","","","","14","","F13T","Owls can see the color blue.","true","sentence_recording","blob:https://charburnham.github.io/bb9684b5-8999-4491-aadb-3aa7f13afb3c","1","7brghu4wnv_F13T_audio.webm","",""
"4294","
            <div class=""recording-instructions-box"">
              <h2>Review your recording</h2>
              <p>Listen to your recording for this sentence. If you want, you can record it again before moving on.</p>
              <p class=""sentence-stimulus"">Owls can see the color blue.</p>
              <audio controls src=""blob:https://charburnham.github.io/bb9684b5-8999-4491-aadb-3aa7f13afb3c"" class=""playback-audio""></audio>
            </div>
          ","1","html-button-response","128","723977","0.0-40.0-2.0","7brghu4wnv","","","","","","queued","F13T","Owls can see the color blue.","true","sentence_review","","1","7brghu4wnv_F13T_audio.webm","accepted","7brghu4wnv_F13T_audio.webm"
"2028","
          <div class=""recording-instructions-box"">
            <h2>Read the sentence aloud</h2>
            <p>Take a moment to get ready. When you are ready to begin, click the button below to start recording.</p>
            <p class=""sentence-stimulus"">Only female mosquitoes bite.</p>
          </div>
        ","0","html-button-response","129","726008","0.0-41.0-0.0","7brghu4wnv","","","","","","","50T","Only female mosquitoes bite.","true","sentence_ready","","","","",""
"3662","
          <div class=""recording-instructions-box"">
            <h2>Recording in progress</h2>
            <p>Please read the sentence naturally, then click the button when you are done.</p>
            <p class=""sentence-stimulus"">Only female mosquitoes bite.</p>
          </div>
        ","null","html-audio-response","130","729747","0.0-41.0-1.0","7brghu4wnv","","","","","13","","50T","Only female mosquitoes bite.","true","sentence_recording","blob:https://charburnham.github.io/58234771-6624-4db0-9862-9accb4a5e93e","1","7brghu4wnv_50T_audio.webm","",""
"4161","
            <div class=""recording-instructions-box"">
              <h2>Review your recording</h2>
              <p>Listen to your recording for this sentence. If you want, you can record it again before moving on.</p>
              <p class=""sentence-stimulus"">Only female mosquitoes bite.</p>
              <audio controls src=""blob:https://charburnham.github.io/58234771-6624-4db0-9862-9accb4a5e93e"" class=""playback-audio""></audio>
            </div>
          ","1","html-button-response","131","733910","0.0-41.0-2.0","7brghu4wnv","","","","","","queued","50T","Only female mosquitoes bite.","true","sentence_review","","1","7brghu4wnv_50T_audio.webm","accepted","7brghu4wnv_50T_audio.webm"
"2880","
          <div class=""recording-instructions-box"">
            <h2>Read the sentence aloud</h2>
            <p>Take a moment to get ready. When you are ready to begin, click the button below to start recording.</p>
            <p class=""sentence-stimulus"">In the late 1900s, the United States Mint issued 2-cent and 3-cent coins.</p>
          </div>
        ","0","html-button-response","132","736793","0.0-42.0-0.0","7brghu4wnv","","","","","","","11F","In the late 1900s, the United States Mint issued 2-cent and 3-cent coins.","false","sentence_ready","","","","",""
"7845","
          <div class=""recording-instructions-box"">
            <h2>Recording in progress</h2>
            <p>Please read the sentence naturally, then click the button when you are done.</p>
            <p class=""sentence-stimulus"">In the late 1900s, the United States Mint issued 2-cent and 3-cent coins.</p>
          </div>
        ","null","html-audio-response","133","744714","0.0-42.0-1.0","7brghu4wnv","","","","","16","","11F","In the late 1900s, the United States Mint issued 2-cent and 3-cent coins.","false","sentence_recording","blob:https://charburnham.github.io/7458d06b-bf15-40c8-b6d1-bd1bd3d33ea1","1","7brghu4wnv_11F_audio.webm","",""
"8210","
            <div class=""recording-instructions-box"">
              <h2>Review your recording</h2>
              <p>Listen to your recording for this sentence. If you want, you can record it again before moving on.</p>
              <p class=""sentence-stimulus"">In the late 1900s, the United States Mint issued 2-cent and 3-cent coins.</p>
              <audio controls src=""blob:https://charburnham.github.io/7458d06b-bf15-40c8-b6d1-bd1bd3d33ea1"" class=""playback-audio""></audio>
            </div>
          ","1","html-button-response","134","752926","0.0-42.0-2.0","7brghu4wnv","","","","","","queued","11F","In the late 1900s, the United States Mint issued 2-cent and 3-cent coins.","false","sentence_review","","1","7brghu4wnv_11F_audio.webm","accepted","7brghu4wnv_11F_audio.webm"
"1514","
          <div class=""recording-instructions-box"">
            <h2>Read the sentence aloud</h2>
            <p>Take a moment to get ready. When you are ready to begin, click the button below to start recording.</p>
            <p class=""sentence-stimulus"">Studies suggest that ants can lift up to 5000 times their own weight.</p>
          </div>
        ","0","html-button-response","135","754442","0.0-43.0-0.0","7brghu4wnv","","","","","","","6T","Studies suggest that ants can lift up to 5000 times their own weight.","true","sentence_ready","","","","",""
"6427","
          <div class=""recording-instructions-box"">
            <h2>Recording in progress</h2>
            <p>Please read the sentence naturally, then click the button when you are done.</p>
            <p class=""sentence-stimulus"">Studies suggest that ants can lift up to 5000 times their own weight.</p>
          </div>
        ","null","html-audio-response","136","760947","0.0-43.0-1.0","7brghu4wnv","","","","","16","","6T","Studies suggest that ants can lift up to 5000 times their own weight.","true","sentence_recording","blob:https://charburnham.github.io/82eea749-e83a-4501-a888-0f6ecd3f851d","1","7brghu4wnv_6T_audio.webm","",""
"3110","
            <div class=""recording-instructions-box"">
              <h2>Review your recording</h2>
              <p>Listen to your recording for this sentence. If you want, you can record it again before moving on.</p>
              <p class=""sentence-stimulus"">Studies suggest that ants can lift up to 5000 times their own weight.</p>
              <audio controls src=""blob:https://charburnham.github.io/82eea749-e83a-4501-a888-0f6ecd3f851d"" class=""playback-audio""></audio>
            </div>
          ","0","html-button-response","137","764059","0.0-43.0-2.0","7brghu4wnv","","","","","","not_uploaded_rerecorded","6T","Studies suggest that ants can lift up to 5000 times their own weight.","true","sentence_review","","1","7brghu4wnv_6T_audio.webm","rerecord","null"
"931","
          <div class=""recording-instructions-box"">
            <h2>Read the sentence aloud</h2>
            <p>Take a moment to get ready. When you are ready to begin, click the button below to start recording.</p>
            <p class=""sentence-stimulus"">Studies suggest that ants can lift up to 5000 times their own weight.</p>
          </div>
        ","0","html-button-response","138","764992","0.0-43.1-0.1","7brghu4wnv","","","","","","","6T","Studies suggest that ants can lift up to 5000 times their own weight.","true","sentence_ready","","","","",""
"6394","
          <div class=""recording-instructions-box"">
            <h2>Recording in progress</h2>
            <p>Please read the sentence naturally, then click the button when you are done.</p>
            <p class=""sentence-stimulus"">Studies suggest that ants can lift up to 5000 times their own weight.</p>
          </div>
        ","null","html-audio-response","139","771463","0.0-43.1-1.1","7brghu4wnv","","","","","16","","6T","Studies suggest that ants can lift up to 5000 times their own weight.","true","sentence_recording","blob:https://charburnham.github.io/144309ca-dff7-46d2-b88a-39a05c9204ac","2","7brghu4wnv_6T_audio.webm","",""
"7861","
            <div class=""recording-instructions-box"">
              <h2>Review your recording</h2>
              <p>Listen to your recording for this sentence. If you want, you can record it again before moving on.</p>
              <p class=""sentence-stimulus"">Studies suggest that ants can lift up to 5000 times their own weight.</p>
              <audio controls src=""blob:https://charburnham.github.io/144309ca-dff7-46d2-b88a-39a05c9204ac"" class=""playback-audio""></audio>
            </div>
          ","1","html-button-response","140","779326","0.0-43.1-2.1","7brghu4wnv","","","","","","queued","6T","Studies suggest that ants can lift up to 5000 times their own weight.","true","sentence_review","","2","7brghu4wnv_6T_audio.webm","accepted","7brghu4wnv_6T_audio.webm"
"3029","
          <div class=""recording-instructions-box"">
            <h2>Read the sentence aloud</h2>
            <p>Take a moment to get ready. When you are ready to begin, click the button below to start recording.</p>
            <p class=""sentence-stimulus"">The blue whale is the largest animal that has ever lived on earth.</p>
          </div>
        ","0","html-button-response","141","782358","0.0-44.0-0.0","7brghu4wnv","","","","","","","F16T","The blue whale is the largest animal that has ever lived on earth.","true","sentence_ready","","","","",""
"5562","
          <div class=""recording-instructions-box"">
            <h2>Recording in progress</h2>
            <p>Please read the sentence naturally, then click the button when you are done.</p>
            <p class=""sentence-stimulus"">The blue whale is the largest animal that has ever lived on earth.</p>
          </div>
        ","null","html-audio-response","142","787996","0.0-44.0-1.0","7brghu4wnv","","","","","12","","F16T","The blue whale is the largest animal that has ever lived on earth.","true","sentence_recording","blob:https://charburnham.github.io/ba39ad48-8d5f-4457-b794-41f321e1477b","1","7brghu4wnv_F16T_audio.webm","",""
"6393","
            <div class=""recording-instructions-box"">
              <h2>Review your recording</h2>
              <p>Listen to your recording for this sentence. If you want, you can record it again before moving on.</p>
              <p class=""sentence-stimulus"">The blue whale is the largest animal that has ever lived on earth.</p>
              <audio controls src=""blob:https://charburnham.github.io/ba39ad48-8d5f-4457-b794-41f321e1477b"" class=""playback-audio""></audio>
            </div>
          ","1","html-button-response","143","794390","0.0-44.0-2.0","7brghu4wnv","","","","","","queued","F16T","The blue whale is the largest animal that has ever lived on earth.","true","sentence_review","","1","7brghu4wnv_F16T_audio.webm","accepted","7brghu4wnv_F16T_audio.webm"
"2716","
          <div class=""recording-instructions-box"">
            <h2>Read the sentence aloud</h2>
            <p>Take a moment to get ready. When you are ready to begin, click the button below to start recording.</p>
            <p class=""sentence-stimulus"">Elephants can jump higher than humans.</p>
          </div>
        ","0","html-button-response","144","797108","0.0-45.0-0.0","7brghu4wnv","","","","","","","F3F","Elephants can jump higher than humans.","false","sentence_ready","","","","",""
"4112","
          <div class=""recording-instructions-box"">
            <h2>Recording in progress</h2>
            <p>Please read the sentence naturally, then click the button when you are done.</p>
            <p class=""sentence-stimulus"">Elephants can jump higher than humans.</p>
          </div>
        ","null","html-audio-response","145","801296","0.0-45.0-1.0","7brghu4wnv","","","","","12","","F3F","Elephants can jump higher than humans.","false","sentence_recording","blob:https://charburnham.github.io/6d992c22-96c9-4949-be21-7237816aaf63","1","7brghu4wnv_F3F_audio.webm","",""
"710","
            <div class=""recording-instructions-box"">
              <h2>Review your recording</h2>
              <p>Listen to your recording for this sentence. If you want, you can record it again before moving on.</p>
              <p class=""sentence-stimulus"">Elephants can jump higher than humans.</p>
              <audio controls src=""blob:https://charburnham.github.io/6d992c22-96c9-4949-be21-7237816aaf63"" class=""playback-audio""></audio>
            </div>
          ","0","html-button-response","146","802008","0.0-45.0-2.0","7brghu4wnv","","","","","","not_uploaded_rerecorded","F3F","Elephants can jump higher than humans.","false","sentence_review","","1","7brghu4wnv_F3F_audio.webm","rerecord","null"
"615","
          <div class=""recording-instructions-box"">
            <h2>Read the sentence aloud</h2>
            <p>Take a moment to get ready. When you are ready to begin, click the button below to start recording.</p>
            <p class=""sentence-stimulus"">Elephants can jump higher than humans.</p>
          </div>
        ","0","html-button-response","147","802624","0.0-45.1-0.1","7brghu4wnv","","","","","","","F3F","Elephants can jump higher than humans.","false","sentence_ready","","","","",""
"3613","
          <div class=""recording-instructions-box"">
            <h2>Recording in progress</h2>
            <p>Please read the sentence naturally, then click the button when you are done.</p>
            <p class=""sentence-stimulus"">Elephants can jump higher than humans.</p>
          </div>
        ","null","html-audio-response","148","806313","0.0-45.1-1.1","7brghu4wnv","","","","","18","","F3F","Elephants can jump higher than humans.","false","sentence_recording","blob:https://charburnham.github.io/a6d1be66-e164-43a3-8972-b3507dd7c409","2","7brghu4wnv_F3F_audio.webm","",""
"5977","
            <div class=""recording-instructions-box"">
              <h2>Review your recording</h2>
              <p>Listen to your recording for this sentence. If you want, you can record it again before moving on.</p>
              <p class=""sentence-stimulus"">Elephants can jump higher than humans.</p>
              <audio controls src=""blob:https://charburnham.github.io/a6d1be66-e164-43a3-8972-b3507dd7c409"" class=""playback-audio""></audio>
            </div>
          ","0","html-button-response","149","812291","0.0-45.1-2.1","7brghu4wnv","","","","","","not_uploaded_rerecorded","F3F","Elephants can jump higher than humans.","false","sentence_review","","2","7brghu4wnv_F3F_audio.webm","rerecord","null"
"598","
          <div class=""recording-instructions-box"">
            <h2>Read the sentence aloud</h2>
            <p>Take a moment to get ready. When you are ready to begin, click the button below to start recording.</p>
            <p class=""sentence-stimulus"">Elephants can jump higher than humans.</p>
          </div>
        ","0","html-button-response","150","812891","0.0-45.2-0.2","7brghu4wnv","","","","","","","F3F","Elephants can jump higher than humans.","false","sentence_ready","","","","",""
"3960","
          <div class=""recording-instructions-box"">
            <h2>Recording in progress</h2>
            <p>Please read the sentence naturally, then click the button when you are done.</p>
            <p class=""sentence-stimulus"">Elephants can jump higher than humans.</p>
          </div>
        ","null","html-audio-response","151","816928","0.0-45.2-1.2","7brghu4wnv","","","","","16","","F3F","Elephants can jump higher than humans.","false","sentence_recording","blob:https://charburnham.github.io/ace3380b-c577-4b91-85ed-324814326b48","3","7brghu4wnv_F3F_audio.webm","",""
"5461","
            <div class=""recording-instructions-box"">
              <h2>Review your recording</h2>
              <p>Listen to your recording for this sentence. If you want, you can record it again before moving on.</p>
              <p class=""sentence-stimulus"">Elephants can jump higher than humans.</p>
              <audio controls src=""blob:https://charburnham.github.io/ace3380b-c577-4b91-85ed-324814326b48"" class=""playback-audio""></audio>
            </div>
          ","1","html-button-response","152","822390","0.0-45.2-2.2","7brghu4wnv","","","","","","queued","F3F","Elephants can jump higher than humans.","false","sentence_review","","3","7brghu4wnv_F3F_audio.webm","accepted","7brghu4wnv_F3F_audio.webm"
"1832","
          <div class=""recording-instructions-box"">
            <h2>Read the sentence aloud</h2>
            <p>Take a moment to get ready. When you are ready to begin, click the button below to start recording.</p>
            <p class=""sentence-stimulus"">Children tend to grow faster in the winter.</p>
          </div>
        ","0","html-button-response","153","824224","0.0-46.0-0.0","7brghu4wnv","","","","","","","F12F","Children tend to grow faster in the winter.","false","sentence_ready","","","","",""
"4212","
          <div class=""recording-instructions-box"">
            <h2>Recording in progress</h2>
            <p>Please read the sentence naturally, then click the button when you are done.</p>
            <p class=""sentence-stimulus"">Children tend to grow faster in the winter.</p>
          </div>
        ","null","html-audio-response","154","828511","0.0-46.0-1.0","7brghu4wnv","","","","","18","","F12F","Children tend to grow faster in the winter.","false","sentence_recording","blob:https://charburnham.github.io/bf9db6a4-b374-448c-940b-79bc67ed21d9","1","7brghu4wnv_F12F_audio.webm","",""
"5211","
            <div class=""recording-instructions-box"">
              <h2>Review your recording</h2>
              <p>Listen to your recording for this sentence. If you want, you can record it again before moving on.</p>
              <p class=""sentence-stimulus"">Children tend to grow faster in the winter.</p>
              <audio controls src=""blob:https://charburnham.github.io/bf9db6a4-b374-448c-940b-79bc67ed21d9"" class=""playback-audio""></audio>
            </div>
          ","1","html-button-response","155","833725","0.0-46.0-2.0","7brghu4wnv","","","","","","queued","F12F","Children tend to grow faster in the winter.","false","sentence_review","","1","7brghu4wnv_F12F_audio.webm","accepted","7brghu4wnv_F12F_audio.webm"
"2279","
          <div class=""recording-instructions-box"">
            <h2>Read the sentence aloud</h2>
            <p>Take a moment to get ready. When you are ready to begin, click the button below to start recording.</p>
            <p class=""sentence-stimulus"">Traffic lights were invented before automobiles.</p>
          </div>
        ","0","html-button-response","156","836007","0.0-47.0-0.0","7brghu4wnv","","","","","","","26T","Traffic lights were invented before automobiles.","true","sentence_ready","","","","",""
"4579","
          <div class=""recording-instructions-box"">
            <h2>Recording in progress</h2>
            <p>Please read the sentence naturally, then click the button when you are done.</p>
            <p class=""sentence-stimulus"">Traffic lights were invented before automobiles.</p>
          </div>
        ","null","html-audio-response","157","840662","0.0-47.0-1.0","7brghu4wnv","","","","","11","","26T","Traffic lights were invented before automobiles.","true","sentence_recording","blob:https://charburnham.github.io/4e1d33ea-b91e-4954-9686-d51eda1d03d5","1","7brghu4wnv_26T_audio.webm","",""
"5793","
            <div class=""recording-instructions-box"">
              <h2>Review your recording</h2>
              <p>Listen to your recording for this sentence. If you want, you can record it again before moving on.</p>
              <p class=""sentence-stimulus"">Traffic lights were invented before automobiles.</p>
              <audio controls src=""blob:https://charburnham.github.io/4e1d33ea-b91e-4954-9686-d51eda1d03d5"" class=""playback-audio""></audio>
            </div>
          ","1","html-button-response","158","846457","0.0-47.0-2.0","7brghu4wnv","","","","","","queued","26T","Traffic lights were invented before automobiles.","true","sentence_review","","1","7brghu4wnv_26T_audio.webm","accepted","7brghu4wnv_26T_audio.webm"
"1813","
          <div class=""recording-instructions-box"">
            <h2>Read the sentence aloud</h2>
            <p>Take a moment to get ready. When you are ready to begin, click the button below to start recording.</p>
